"Time (s)","Gyroscope x (rad/s)","Gyroscope y (rad/s)","Gyroscope z (rad/s)","Absolute (rad/s)"
-1.616458334E-3,2.164919861E-2,9.012775868E-2,2.317635715E-1,2.496118061E-1
8.404541666E-3,6.153063383E-3,-6.901821494E-2,2.679844499E-1,2.767978316E-1
1.842554167E-2,-7.613686845E-3,-2.139171064E-1,3.077590168E-1,3.748787924E-1
2.844654167E-2,-8.489601314E-3,-3.233525157E-1,3.545227945E-1,4.799117987E-1
3.846754167E-2,4.826347344E-3,-3.882800639E-1,3.563547432E-1,5.270421280E-1
4.848754167E-2,4.733013362E-2,-3.429927230E-1,2.717061937E-1,4.401231706E-1
5.850854167E-2,7.166784257E-2,-2.587309182E-1,2.519610822E-1,3.681879338E-1
6.852954167E-2,5.852407962E-2,-1.821836680E-1,2.585816979E-1,3.216837753E-1
7.855054167E-2,4.699444398E-2,-1.644510329E-1,2.635955811E-1,3.142216580E-1
8.857054167E-2,7.272137702E-2,-1.775388718E-1,2.569424808E-1,3.206678782E-1
9.859154167E-2,8.099456131E-2,-1.768195182E-1,2.561967969E-1,3.216551876E-1
1.086125417E-1,9.788485616E-2,-1.886985451E-1,2.603268027E-1,3.360931868E-1
1.186335417E-1,1.104659811E-1,-2.070179731E-1,2.621134222E-1,3.517991191E-1
1.286545417E-1,1.187745109E-1,-2.377175540E-1,2.671537101E-1,3.768131165E-1
1.386745417E-1,1.278334558E-1,-2.984167635E-1,2.582477331E-1,4.148323141E-1
1.486955417E-1,1.383540034E-1,-3.746220469E-1,2.640308142E-1,4.787439599E-1
1.587165417E-1,1.561730206E-1,-4.609051049E-1,2.913232148E-1,5.671796396E-1
1.687375417E-1,1.667313874E-1,-5.631193519E-1,3.384750187E-1,6.778407618E-1
1.787585417E-1,1.776279658E-1,-6.627599597E-1,3.936988413E-1,7.910759989E-1
1.887785417E-1,1.565437168E-1,-7.970908284E-1,4.741878211E-1,9.405922675E-1
1.987995417E-1,1.285608560E-1,-9.763218760E-1,5.520577431E-1,1.128937576E0
2.088205417E-1,9.800560772E-2,-1.167572260E0,5.945644379E-1,1.313901424E0
2.188415417E-1,8.868998289E-2,-1.357636333E0,6.075125337E-1,1.490004632E0
2.288625417E-1,9.531459957E-2,-1.511681795E0,5.722603202E-1,1.619181459E0
2.388825417E-1,1.359978765E-1,-1.586885452E0,5.201389194E-1,1.675483619E0
2.489035417E-1,1.827267706E-1,-1.548433185E0,4.737245440E-1,1.629554953E0
2.589245417E-1,2.433245480E-1,-1.413443208E0,4.096111655E-1,1.491579647E0
2.689455417E-1,3.342722952E-1,-1.146119952E0,3.316372633E-1,1.239077151E0
2.789665417E-1,3.932734132E-1,-8.302188516E-1,2.831141055E-1,9.612912752E-1
2.889865417E-1,3.982862830E-1,-5.105609298E-1,2.537429035E-1,6.954781717E-1
2.990075417E-1,3.927993178E-1,-2.090594769E-1,1.973951608E-1,4.867874469E-1
3.090285417E-1,3.775622845E-1,8.610133082E-2,1.407105774E-1,4.120269219E-1
3.190495417E-1,3.701410592E-1,3.810774386E-1,8.676584810E-2,5.382868476E-1
3.290705417E-1,3.684078753E-1,6.523680687E-1,3.497428820E-2,7.500211067E-1
3.390905417E-1,3.656180203E-1,7.819005847E-1,-1.256255782E-4,8.631599370E-1
3.491115417E-1,3.997839689E-1,6.334344149E-1,-5.231452733E-2,7.508682904E-1
3.591325417E-1,4.387094080E-1,4.279337227E-1,-1.155618355E-1,6.236567594E-1
3.691535417E-1,4.978065491E-1,2.180883288E-1,-1.621261537E-1,5.671496885E-1
3.791745417E-1,5.292228460E-1,2.713411115E-2,-2.054793537E-1,5.683615447E-1
3.891945417E-1,5.342404842E-1,4.713391885E-2,-2.257822305E-1,5.819038726E-1
3.992155417E-1,5.387667418E-1,1.647553295E-1,-2.274955660E-1,6.075920944E-1
4.092365417E-1,5.392852426E-1,3.055047393E-1,-2.199274004E-1,6.576699628E-1
4.192575417E-1,5.385339260E-1,4.327359796E-1,-2.164890021E-1,7.239797687E-1
4.292785417E-1,5.243935585E-1,5.518442392E-1,-1.956662834E-1,7.860063378E-1
4.392985417E-1,5.024437904E-1,6.571267247E-1,-1.776200235E-1,8.460580167E-1
4.493195417E-1,4.790345728E-1,7.716420889E-1,-1.596199870E-1,9.221627707E-1
4.593405417E-1,4.574522376E-1,8.760738373E-1,-1.376124918E-1,9.978502473E-1
4.693615417E-1,4.470728338E-1,9.285570383E-1,-1.082668453E-1,1.036249971E0
4.793825417E-1,4.414210618E-1,8.969875574E-1,-8.253018558E-2,1.003120363E0
4.894025417E-1,4.450650513E-1,7.668591142E-1,-5.679153278E-2,8.884712033E-1
4.994235417E-1,4.440129995E-1,5.759308934E-1,-4.023285583E-2,7.283286486E-1
5.094445417E-1,4.435317516E-1,3.893340826E-1,-2.494498156E-2,5.906976339E-1
5.194655417E-1,4.393410683E-1,2.554500699E-1,-1.359037682E-2,5.083896250E-1
5.294865417E-1,4.345790744E-1,1.570867449E-1,-2.565422328E-3,4.621058306E-1
5.395065417E-1,4.298188090E-1,8.271803707E-2,3.271415830E-3,4.377181564E-1
5.495275417E-1,4.342748225E-1,3.847334534E-2,8.976705372E-3,4.360681151E-1
5.595485417E-1,4.356656969E-1,1.807695627E-2,1.335170865E-2,4.362449357E-1
5.695695417E-1,4.317505956E-1,1.015591528E-2,1.965408027E-2,4.323170159E-1
5.795905417E-1,4.251625836E-1,8.050095290E-3,2.158892155E-2,4.257864583E-1
5.896105417E-1,4.201835394E-1,4.539250396E-3,1.898328587E-2,4.206366326E-1
5.996315417E-1,4.106580019E-1,-1.128622564E-3,1.291800011E-2,4.108626815E-1
6.096531667E-1,4.035446942E-1,-1.998007484E-2,8.150675334E-3,4.041212159E-1
6.196741667E-1,3.941721916E-1,-7.528941333E-2,1.055128057E-3,4.012995461E-1
6.296941667E-1,3.833131492E-1,-1.567278206E-1,-4.418347380E-4,4.141168619E-1
6.397151667E-1,3.699209094E-1,-2.112520486E-1,-4.772547982E-4,4.259919424E-1
6.497361667E-1,3.484156132E-1,-1.986499578E-1,1.583499252E-3,4.010707577E-1
6.597571667E-1,3.257724345E-1,-1.405902058E-1,1.008086465E-2,3.549576156E-1
6.697781667E-1,3.030532598E-1,-7.653213292E-2,1.697259210E-2,3.130279773E-1
6.797981667E-1,2.815308571E-1,-3.021488711E-2,2.201917768E-2,2.840024772E-1
6.898191667E-1,2.667891979E-1,-1.421541627E-2,2.602617070E-2,2.684323299E-1
6.998401667E-1,2.548353970E-1,-2.693927474E-2,4.127664119E-2,2.595584042E-1
7.098611667E-1,2.371807843E-1,-5.610941350E-2,5.206883699E-2,2.492271144E-1
7.198821667E-1,2.169440389E-1,-5.113379285E-2,5.725697801E-2,2.301254925E-1
7.299021667E-1,2.004470825E-1,-1.155309286E-2,6.954453886E-2,2.124828222E-1
7.399231667E-1,1.804132313E-1,-4.920642823E-4,6.750888377E-2,1.926308011E-1
7.499441667E-1,1.394583434E-1,-2.720519602E-1,2.002765425E-2,3.063690675E-1
7.599651667E-1,1.039377153E-1,-5.284657478E-1,-3.393337131E-2,5.396578258E-1
7.699861667E-1,5.776328966E-2,-5.831862688E-1,-6.568251550E-2,5.897092628E-1
7.800061667E-1,8.681029081E-3,-4.317772090E-1,-7.970021665E-2,4.391571963E-1
7.900271667E-1,-3.326908499E-2,-1.478525400E-1,-8.061288297E-2,1.716555927E-1
8.000481667E-1,-7.124864310E-2,1.772078574E-1,-1.150915921E-1,2.229911846E-1
8.100691667E-1,-1.044121906E-1,3.462943435E-1,-1.334378272E-1,3.855221545E-1
8.200901667E-1,-1.312452406E-1,4.162443578E-1,-1.484009475E-1,4.609853792E-1
8.301101667E-1,-1.515230685E-1,3.822685480E-1,-1.500664800E-1,4.377310036E-1
8.401311667E-1,-1.669828296E-1,3.408390582E-1,-1.403271109E-1,4.046556894E-1
8.501521667E-1,-1.776386648E-1,2.665387392E-1,-1.242014021E-1,3.435467698E-1
8.601731667E-1,-1.716152877E-1,2.913590372E-1,-1.154705286E-1,3.573168600E-1
8.701941667E-1,-1.443823427E-1,4.818903804E-1,-1.178023964E-1,5.166643051E-1
8.802141667E-1,-1.121443361E-1,6.226413250E-1,-1.353960633E-1,6.469858311E-1
8.902351667E-1,-8.049559593E-2,6.411385536E-1,-1.596995443E-1,6.656141002E-1
9.002561667E-1,-5.092624947E-2,5.335873365E-1,-1.800487638E-1,5.654436187E-1
9.102771667E-1,-2.572572790E-2,3.455174565E-1,-1.937486678E-1,3.969668401E-1
9.202981667E-1,-1.359607000E-2,1.499027014E-1,-1.924915761E-1,2.443535960E-1
9.303181667E-1,4.186655860E-3,2.417460829E-2,-1.813891232E-1,1.830408528E-1
9.403391667E-1,2.409114502E-2,-2.709081024E-2,-1.590844095E-1,1.631629388E-1
9.503601667E-1,4.854402691E-2,-4.782617837E-2,-1.404683739E-1,1.561256864E-1
9.603811667E-1,7.222805917E-2,-4.303861037E-2,-1.094696820E-1,1.380319738E-1
9.704021667E-1,9.155675024E-2,-5.728039891E-2,-7.236891985E-2,1.300036275E-1
9.804221667E-1,1.117063984E-1,-1.168528423E-1,-3.684866801E-2,1.658032887E-1
9.904431667E-1,1.239526793E-1,-2.210468948E-1,-9.732891805E-3,2.536153103E-1
1.000464167E0,1.278187335E-1,-3.205777705E-1,8.025380783E-3,3.452131838E-1
1.010485167E0,1.367480457E-1,-3.971742690E-1,1.690515876E-2,4.203964942E-1
1.020506167E0,1.467250884E-1,-4.626017213E-1,2.447270416E-2,4.859295395E-1
1.030526167E0,1.515832245E-1,-5.077117085E-1,3.387579694E-2,5.309390008E-1
1.040547167E0,1.440393329E-1,-5.928232074E-1,4.386106879E-2,6.116457128E-1
1.050568167E0,1.364027113E-1,-7.048280239E-1,5.706928298E-2,7.201702202E-1
1.060589167E0,1.235933453E-1,-7.329875231E-1,6.605391204E-2,7.462634543E-1
1.070610167E0,1.109443903E-1,-6.458480954E-1,6.568133831E-2,6.585912680E-1
1.080630167E0,9.327799082E-2,-4.913394153E-1,5.931920186E-2,5.036208617E-1
1.090651167E0,6.897424906E-2,-3.260918558E-1,4.138387740E-2,3.358660012E-1
1.100672167E0,3.577336669E-2,-1.856450438E-1,1.464316808E-2,1.896265763E-1
1.110693167E0,-1.202760264E-3,-6.756686419E-2,-1.613844559E-2,6.947788997E-2
1.120714167E0,-3.282578662E-2,2.695730701E-2,-5.174891651E-2,6.694907787E-2
1.130734167E0,-6.181509048E-2,1.100127771E-1,-7.593547553E-2,1.472756361E-1
1.140755167E0,-8.660421520E-2,1.746441722E-1,-8.600834012E-2,2.130687953E-1
1.150776167E0,-1.062948257E-1,1.974767745E-1,-7.859250158E-2,2.376393228E-1
1.160797167E0,-1.193840057E-1,1.949100196E-1,-6.621071696E-2,2.379628450E-1
1.170817167E0,-1.306702197E-1,1.658839732E-1,-4.527613521E-2,2.159678849E-1
1.180838167E0,-1.405714154E-1,9.514436126E-2,-3.107102215E-2,1.725635556E-1
1.190859167E0,-1.486754119E-1,5.096251145E-2,-1.477567479E-2,1.578603061E-1
1.200880167E0,-1.591441929E-1,1.016077772E-1,2.906042151E-3,1.888371246E-1
1.210901167E0,-1.701380014E-1,2.112373263E-1,1.192297321E-2,2.714964177E-1
1.220921167E0,-1.713430732E-1,2.924248576E-1,1.480051875E-2,3.392488783E-1
1.230942167E0,-1.654217988E-1,3.334548473E-1,1.990792714E-2,3.727637755E-1
1.240963167E0,-1.610150337E-1,3.296750486E-1,2.539070696E-2,3.677718950E-1
1.250984167E0,-1.535587162E-1,2.738173902E-1,2.946720831E-2,3.153166010E-1
1.261005167E0,-1.452398598E-1,2.110880315E-1,3.483208641E-2,2.585847021E-1
1.271025167E0,-1.340615153E-1,1.453196704E-1,3.625741228E-2,2.010096924E-1
1.281046167E0,-1.236986518E-1,8.110179007E-2,4.015721381E-2,1.532692358E-1
1.291067167E0,-1.157613620E-1,1.947171241E-2,4.437619448E-2,1.254953671E-1
1.301088167E0,-1.005904302E-1,-4.525110126E-2,5.146943778E-2,1.217177055E-1
1.311109167E0,-9.621565789E-2,-8.709362149E-2,6.055907160E-2,1.432136616E-1
1.321129167E0,-9.327574819E-2,-1.045206413E-1,7.169003785E-2,1.573670587E-1
1.331150167E0,-8.678536117E-2,-1.021759957E-1,7.297500968E-2,1.526334991E-1
1.341171167E0,-8.200367540E-2,-9.345921874E-2,7.472728193E-2,1.450634172E-1
1.351192167E0,-8.463993669E-2,-7.560298592E-2,7.729403675E-2,1.373102271E-1
1.361213167E0,-8.725202084E-2,-5.379373580E-2,7.819598913E-2,1.289235970E-1
1.371233167E0,-8.853113651E-2,-4.952468723E-2,7.513175905E-2,1.262348525E-1
1.381254167E0,-9.285631776E-2,-5.590160564E-2,7.213591784E-2,1.301955295E-1
1.391275167E0,-9.433356673E-2,-6.340106577E-2,6.968474388E-2,1.333209679E-1
1.401296167E0,-9.814838320E-2,-7.149807364E-2,6.957515329E-2,1.399492108E-1
1.411317167E0,-9.992577881E-2,-7.307838649E-2,6.300380081E-2,1.389067700E-1
1.421337167E0,-1.008105800E-1,-5.494374782E-2,6.487943977E-2,1.318746760E-1
1.431358167E0,-1.078152210E-1,-2.578266524E-2,7.039804012E-2,1.313192741E-1
1.441379167E0,-1.141609922E-1,3.051336389E-4,7.680538297E-2,1.375932124E-1
1.451400167E0,-1.219052002E-1,2.112679183E-2,7.426472753E-2,1.442999270E-1
1.461421167E0,-1.308679879E-1,3.630257770E-2,8.013086766E-2,1.576872327E-1
1.471441167E0,-1.379408240E-1,4.662153125E-2,7.549350709E-2,1.640137425E-1
1.481462167E0,-1.453746110E-1,5.131594837E-2,7.516410947E-2,1.715131116E-1
1.491483167E0,-1.487344503E-1,6.056110933E-2,6.862498075E-2,1.746395507E-1
1.501504167E0,-1.546475589E-1,6.901181489E-2,6.467436254E-2,1.812767808E-1
1.511525167E0,-1.579336226E-1,6.517100334E-2,6.199975312E-2,1.817532894E-1
1.521545167E0,-1.579771936E-1,5.161688849E-2,5.893564969E-2,1.763363481E-1
1.531566167E0,-1.578517705E-1,3.946195543E-2,5.181755126E-2,1.707614886E-1
1.541587167E0,-1.622714549E-1,3.165893629E-2,5.248026922E-2,1.734603470E-1
1.551608167E0,-1.600328088E-1,2.927247621E-2,4.864718392E-2,1.698055542E-1
1.561629167E0,-1.552765816E-1,2.847451903E-2,4.148977250E-2,1.632268858E-1
1.571649167E0,-1.527692080E-1,4.171069711E-2,4.389620572E-2,1.643322550E-1
1.581670167E0,-1.503573060E-1,5.912638828E-2,4.054258391E-2,1.665741588E-1
1.591691167E0,-1.461551040E-1,6.613077223E-2,4.074791446E-2,1.655143076E-1
1.601712167E0,-1.397096664E-1,5.662490800E-2,4.616153613E-2,1.576580429E-1
1.611731917E0,-1.345561743E-1,2.885878831E-2,4.341342300E-2,1.443014865E-1
1.621752917E0,-1.249157786E-1,-8.202816360E-3,3.798012435E-2,1.308194473E-1
1.631773917E0,-1.193502992E-1,-5.666808784E-2,3.537928313E-2,1.367752163E-1
1.641794917E0,-1.123323664E-1,-1.029683799E-1,2.402475104E-2,1.542667704E-1
1.651815917E0,-1.058659405E-1,-1.359380335E-1,1.716657728E-2,1.731514876E-1
1.661835917E0,-9.728550911E-2,-1.481546164E-1,1.075694151E-2,1.775668111E-1
1.671856917E0,-9.281592071E-2,-1.441177875E-1,1.419588178E-2,1.720065547E-1
1.681877917E0,-8.753014356E-2,-1.068921387E-1,1.650595665E-2,1.391398647E-1
1.691898917E0,-9.117041528E-2,-5.434291437E-2,1.999363303E-2,1.080043625E-1
1.701919917E0,-8.951340616E-2,-1.740791462E-2,2.346548811E-2,9.416110930E-2
1.711939917E0,-9.015256166E-2,-1.045720652E-3,2.377947420E-2,9.324184307E-2
1.721960917E0,-8.999672532E-2,1.043289993E-2,1.894154772E-2,9.255829622E-2
1.731981917E0,-9.190328419E-2,-6.704807281E-3,1.290149800E-2,9.304631501E-2
1.742002917E0,-8.910608292E-2,-4.482259601E-2,4.630557261E-3,9.985189626E-2
1.752023917E0,-8.920221776E-2,-8.816288412E-2,-8.137702011E-3,1.256819477E-1
1.762043917E0,-8.831799030E-2,-1.136133596E-1,-2.220376767E-2,1.456058728E-1
1.772064917E0,-9.534074366E-2,-1.188225001E-1,-3.475790843E-2,1.562586194E-1
1.782085917E0,-1.050966382E-1,-9.376558661E-2,-4.726837575E-2,1.485650966E-1
1.792106917E0,-1.134046391E-1,-9.986875206E-2,-5.153609812E-2,1.596569736E-1
1.802127917E0,-1.208204851E-1,-4.899956286E-2,-4.832323641E-2,1.390456110E-1
1.812147917E0,-1.260341704E-1,4.390693828E-2,-3.767618537E-2,1.386792208E-1
1.822168917E0,-1.362597793E-1,9.856624156E-2,-2.033377811E-2,1.693974438E-1
1.832189917E0,-1.513503045E-1,1.418904215E-2,-1.847808808E-2,1.531328943E-1
1.842210917E0,-1.805419624E-1,-1.664331704E-1,-2.269152366E-2,2.465974567E-1
1.852231917E0,-2.153153867E-1,-3.612087965E-1,-2.385239489E-2,4.211905117E-1
1.862251917E0,-2.484402657E-1,-5.307964683E-1,-3.257771581E-2,5.869657263E-1
1.872272917E0,-2.839305997E-1,-6.859266758E-1,-4.006013274E-2,7.434492614E-1
1.882293917E0,-3.221432269E-1,-7.882426381E-1,-4.825338721E-2,8.528957173E-1
1.892314917E0,-3.561664522E-1,-8.479120731E-1,-5.575844273E-2,9.213676950E-1
1.902335917E0,-3.822205663E-1,-8.826561570E-1,-6.559808552E-2,9.640941664E-1
1.912355917E0,-4.193277359E-1,-9.199299812E-1,-7.670027018E-2,1.013898344E0
1.922376917E0,-4.667686224E-1,-9.136711359E-1,-8.946563303E-2,1.029889310E0
1.932397917E0,-5.107299089E-1,-8.521864414E-1,-1.044083610E-1,9.989834216E-1
1.942418917E0,-5.605500340E-1,-7.467724681E-1,-1.154187992E-1,9.408543771E-1
1.952439917E0,-6.129738092E-1,-5.922985077E-1,-1.266211271E-1,8.617350654E-1
1.962459917E0,-6.663408875E-1,-4.119675756E-1,-1.418940872E-1,7.961541269E-1
1.972480917E0,-7.206837535E-1,-2.263316661E-1,-1.578951478E-1,7.717136602E-1
1.982501917E0,-7.694249153E-1,-5.125396326E-2,-1.792902946E-1,7.916986035E-1
1.992522917E0,-8.168643117E-1,7.650692761E-2,-1.946362406E-1,8.432104600E-1
2.002543917E0,-8.680817485E-1,1.590847224E-1,-2.197871059E-1,9.094944985E-1
2.012563917E0,-9.076259136E-1,1.837985963E-1,-2.441944480E-1,9.577043654E-1
2.022584917E0,-9.447485805E-1,1.819705665E-1,-2.709820867E-1,9.995471268E-1
2.032605917E0,-9.731109738E-1,1.851634383E-1,-2.958203256E-1,1.033798883E0
2.042626917E0,-1.006688476E0,2.111982107E-1,-3.121067286E-1,1.074912546E0
2.052647917E0,-1.052299976E0,2.430349737E-1,-3.264180124E-1,1.128250840E0
2.062667917E0,-1.085158825E0,2.957650423E-1,-3.463231325E-1,1.176854429E0
2.072688917E0,-1.129944921E0,3.383031785E-1,-3.631812036E-1,1.234149566E0
2.082709917E0,-1.174764752E0,3.684634864E-1,-3.755516410E-1,1.287197187E0
2.092730917E0,-1.211272120E0,3.791739345E-1,-3.885529041E-1,1.327375750E0
2.102751917E0,-1.252951264E0,3.482549489E-1,-4.068876207E-1,1.362617304E0
2.112771917E0,-1.290844917E0,2.949256897E-1,-4.056473970E-1,1.384850741E0
2.122792917E0,-1.326001406E0,1.880846918E-1,-4.028335810E-1,1.398545842E0
2.132813917E0,-1.359112740E0,8.489897475E-3,-4.010902643E-1,1.417086066E0
2.142834917E0,-1.388725758E0,-2.137282938E-1,-4.037092328E-1,1.461923445E0
2.152855917E0,-1.412968516E0,-4.629628658E-1,-4.039212167E-1,1.540768312E0
2.162875917E0,-1.437439442E0,-6.881749034E-1,-3.997832835E-1,1.643059195E0
2.172896917E0,-1.460656047E0,-8.708022237E-1,-3.841228187E-1,1.743376878E0
2.182917917E0,-1.483456969E0,-1.014023185E0,-3.708043098E-1,1.834770676E0
2.192938917E0,-1.510264277E0,-1.118701935E0,-3.587657511E-1,1.913401440E0
2.202959917E0,-1.541898727E0,-1.169751644E0,-3.495947719E-1,1.966719883E0
2.212979917E0,-1.569178581E0,-1.154892325E0,-3.306194842E-1,1.976210249E0
2.223000917E0,-1.593498468E0,-1.077700615E0,-3.154604435E-1,1.949407930E0
2.233021917E0,-1.621482968E0,-9.663208127E-1,-3.029449284E-1,1.911742284E0
2.243042917E0,-1.643080831E0,-7.756779194E-1,-2.969972789E-1,1.841086156E0
2.253062917E0,-1.672283173E0,-4.829187393E-1,-2.847065330E-1,1.763745823E0
2.263083917E0,-1.705300927E0,-1.563363820E-1,-2.802490294E-1,1.735232502E0
2.273104917E0,-1.737185836E0,1.259624064E-1,-2.791592479E-1,1.763975919E0
2.283125917E0,-1.769945025E0,3.226800561E-1,-2.860513031E-1,1.821717091E0
2.293146917E0,-1.791855693E0,4.101092517E-1,-2.998579443E-1,1.862485224E0
2.303166917E0,-1.799247026E0,3.519708216E-1,-3.169721067E-1,1.860549553E0
2.313187917E0,-1.791945934E0,1.710838526E-1,-3.330157995E-1,1.830639079E0
2.323208917E0,-1.782400727E0,-6.814850867E-2,-3.561004102E-1,1.818901887E0
2.333229917E0,-1.777462721E0,-2.996885180E-1,-3.666052520E-1,1.839452729E0
2.343250917E0,-1.765365839E0,-4.933738112E-1,-3.729492128E-1,1.870568197E0
2.353270917E0,-1.750458241E0,-6.345732808E-1,-3.800348341E-1,1.900319388E0
2.363291917E0,-1.735054970E0,-7.006291747E-1,-3.850708008E-1,1.910386482E0
2.373312917E0,-1.719369531E0,-6.812192202E-1,-3.884924352E-1,1.889766541E0
2.383333917E0,-1.701827526E0,-6.030677557E-1,-3.840994835E-1,1.845925258E0
2.393354917E0,-1.688596368E0,-4.917234182E-1,-3.907866776E-1,1.801628108E0
2.403374917E0,-1.674196482E0,-3.711789250E-1,-3.963709176E-1,1.760061805E0
2.413395917E0,-1.659355521E0,-3.166144788E-1,-4.118966162E-1,1.738782418E0
2.423416917E0,-1.639223099E0,-3.218805492E-1,-4.362171888E-1,1.726541309E0
2.433437917E0,-1.614688993E0,-3.590010107E-1,-4.619766176E-1,1.717418022E0
2.443458917E0,-1.583172560E0,-3.861331046E-1,-4.870235920E-1,1.700801607E0
2.453478917E0,-1.566227436E0,-3.550324440E-1,-5.171593428E-1,1.687178178E0
2.463499917E0,-1.560748100E0,-2.549669147E-1,-5.394042730E-1,1.670897881E0
2.473520917E0,-1.554813504E0,-1.001040936E-1,-5.621846914E-1,1.656356692E0
2.483541917E0,-1.549031138E0,9.383650124E-2,-5.817107558E-1,1.657314140E0
2.493562917E0,-1.537345529E0,2.781285644E-1,-6.066980958E-1,1.675968183E0
2.503582917E0,-1.512850881E0,4.308973253E-1,-6.317059994E-1,1.695123229E0
2.513603917E0,-1.477424741E0,5.523821712E-1,-6.607062817E-1,1.710100207E0
2.523624917E0,-1.445325494E0,6.532804966E-1,-6.943162680E-1,1.731420304E0
2.533645917E0,-1.412759304E0,7.437909842E-1,-7.281174064E-1,1.754784556E0
2.543666917E0,-1.369861722E0,8.010562062E-1,-7.631092668E-1,1.760837283E0
2.553686917E0,-1.327549338E0,8.339560628E-1,-7.999597192E-1,1.760058383E0
2.563707917E0,-1.280711889E0,8.842848539E-1,-8.367595077E-1,1.767017012E0
2.573728917E0,-1.231215358E0,9.581822157E-1,-8.643034697E-1,1.783542795E0
2.583749917E0,-1.186584234E0,1.045513391E0,-8.875563145E-1,1.813514987E0
2.593770917E0,-1.136338353E0,1.112790704E0,-9.071419835E-1,1.830976401E0
2.603790917E0,-1.071542025E0,1.135062575E0,-9.340808988E-1,1.819086718E0
2.613811542E0,-9.917731285E-1,1.136816859E0,-9.585476518E-1,1.787394783E0
2.623832542E0,-9.178364873E-1,1.136987925E0,-9.776105285E-1,1.758092063E0
2.633853542E0,-8.489767313E-1,1.142940879E0,-9.946805835E-1,1.736797284E0
2.643874542E0,-7.987437248E-1,1.170051217E0,-1.003549933E0,1.736123226E0
2.653894542E0,-7.587049603E-1,1.231695652E0,-1.003215432E0,1.760439888E0
2.663915542E0,-7.281195521E-1,1.335891604E0,-1.000835299E0,1.821108387E0
2.673936542E0,-6.971285939E-1,1.455902696E0,-9.983525872E-1,1.897985465E0
2.683957542E0,-6.693713069E-1,1.578445435E0,-1.000610590E0,1.985137146E0
2.693978542E0,-6.400642991E-1,1.701927185E0,-9.959170222E-1,2.073183341E0
2.703998542E0,-6.281831861E-1,1.792619586E0,-9.890220165E-1,2.141556360E0
2.714019542E0,-6.177981496E-1,1.778350592E0,-9.844565392E-1,2.124467006E0
2.724040542E0,-6.068800688E-1,1.674385428E0,-9.788642526E-1,2.032251265E0
2.734061542E0,-6.070808768E-1,1.518030763E0,-9.698832631E-1,1.900957162E0
2.744082542E0,-6.046687365E-1,1.322817206E0,-9.561777711E-1,1.740616435E0
2.754102542E0,-6.181200743E-1,1.115238190E0,-9.537279606E-1,1.592302003E0
2.764123542E0,-6.423673630E-1,9.401799440E-1,-9.414541125E-1,1.477467428E0
2.774144542E0,-6.518106461E-1,8.047720194E-1,-9.082857370E-1,1.377497042E0
2.784165542E0,-6.342803240E-1,7.116936445E-1,-8.589528203E-1,1.283206655E0
2.794186542E0,-6.219757199E-1,6.069789529E-1,-8.018730283E-1,1.182487885E0
2.804206542E0,-5.934730768E-1,5.029988289E-1,-7.500580549E-1,1.080650360E0
2.814227542E0,-5.622826815E-1,3.870823681E-1,-7.036375999E-1,9.803573051E-1
2.824248542E0,-5.330358744E-1,2.621011138E-1,-6.608882546E-1,8.885930015E-1
2.834269542E0,-5.082045794E-1,1.105826795E-1,-6.295892000E-1,8.166290371E-1
2.844289542E0,-4.732683301E-1,-5.143744871E-2,-6.032056212E-1,7.684307027E-1
2.854310542E0,-4.127485454E-1,-2.083967030E-1,-5.791601539E-1,7.410917834E-1
2.864331542E0,-3.442517221E-1,-3.304043412E-1,-5.562418699E-1,7.328583047E-1
2.874352542E0,-2.820045650E-1,-4.004825056E-1,-5.312153101E-1,7.225666181E-1
2.884373542E0,-2.215625048E-1,-4.341091514E-1,-5.125147700E-1,7.072567344E-1
2.894394542E0,-1.636616588E-1,-4.295583367E-1,-4.818085134E-1,6.659166215E-1
2.904414542E0,-1.236454695E-1,-3.974727988E-1,-4.544701576E-1,6.162920997E-1
2.914435542E0,-8.389273286E-2,-3.626996577E-1,-4.200107157E-1,5.612468562E-1
2.924456542E0,-4.353882372E-2,-3.365351260E-1,-3.856641054E-1,5.137006155E-1
2.934477542E0,-1.120884810E-2,-3.223042488E-1,-3.585725427E-1,4.822654201E-1
2.944497542E0,1.314016990E-4,-3.383868337E-1,-3.339834213E-1,4.754477807E-1
2.954518542E0,2.901089378E-3,-3.564936519E-1,-3.091251850E-1,4.718628192E-1
2.964539542E0,6.714835763E-7,-3.664553165E-1,-2.897259593E-1,4.671516141E-1
2.974560542E0,-1.247890200E-2,-3.575824797E-1,-2.719680071E-1,4.494302501E-1
2.984581542E0,-3.013654798E-2,-3.266095519E-1,-2.476870865E-1,4.110120481E-1
2.994601542E0,-5.002210662E-2,-2.973928154E-1,-2.245194465E-1,3.759703175E-1
3.004622542E0,-7.151581347E-2,-2.784716487E-1,-2.100009024E-1,3.560356018E-1
3.014643542E0,-8.728758991E-2,-2.713671327E-1,-1.905505061E-1,3.428829821E-1
3.024664542E0,-9.530573338E-2,-2.746846080E-1,-1.750721335E-1,3.393892583E-1
3.034685542E0,-9.887517244E-2,-2.859873176E-1,-1.647081673E-1,3.445197032E-1
3.044705542E0,-9.089451283E-2,-2.550661564E-1,-1.477421075E-1,3.084611595E-1
3.054726542E0,-7.061773539E-2,-1.860681921E-1,-1.362130195E-1,2.411684543E-1
3.064747542E0,-4.126783833E-2,-1.102085784E-1,-1.186433434E-1,1.671083726E-1
3.074768542E0,-1.119062770E-2,-6.035846099E-2,-1.039698571E-1,1.207398242E-1
3.084789542E0,1.946480200E-2,-6.047775224E-2,-9.214311838E-2,1.119231491E-1
3.094809542E0,4.746820778E-2,-9.235312790E-2,-7.601793855E-2,1.286897741E-1
3.104830542E0,6.268311292E-2,-1.554886848E-1,-6.835229695E-2,1.810467902E-1
3.114851542E0,7.283321768E-2,-2.482577711E-1,-5.903523415E-2,2.653709807E-1
3.124872542E0,8.510109037E-2,-3.287037313E-1,-5.580537394E-2,3.440967572E-1
3.134893542E0,8.686383814E-2,-4.004308879E-1,-4.976079613E-2,4.127545993E-1
3.144913542E0,8.124978840E-2,-4.324175417E-1,-4.661402106E-2,4.424469748E-1
3.154934542E0,7.347202301E-2,-3.990941942E-1,-4.128290340E-2,4.078953200E-1
3.164955542E0,6.400711089E-2,-3.194727600E-1,-4.156570509E-2,3.284622694E-1
3.174976542E0,4.674130678E-2,-2.237174809E-1,-3.847537190E-2,2.317641371E-1
3.184997542E0,2.925059944E-2,-1.392015964E-1,-3.684839606E-2,1.469370147E-1
3.195017542E0,7.402026094E-3,-7.312483341E-2,-3.385233879E-2,8.091978802E-2
3.205038542E0,-1.472809352E-2,-3.446294740E-2,-3.602538630E-2,5.198499726E-2
3.215059542E0,-3.394892812E-2,-8.348787203E-3,-3.710982576E-2,5.098402824E-2
3.225080542E0,-5.127704889E-2,3.255710006E-2,-4.383617267E-2,7.490601138E-2
3.235101542E0,-7.225982845E-2,1.000085771E-1,-4.790654778E-2,1.323564718E-1
3.245121542E0,-9.465533495E-2,1.926149726E-1,-4.188137129E-2,2.186646047E-1
3.255142542E0,-1.081309244E-1,2.549856603E-1,-3.629299626E-2,2.793334304E-1
3.265163542E0,-1.227008253E-1,2.768943012E-1,-2.829913795E-2,3.041821621E-1
3.275184542E0,-1.295944154E-1,2.687620819E-1,-2.047343925E-2,2.990767976E-1
3.285205542E0,-1.442398578E-1,2.536903322E-1,-1.154477615E-2,2.920568490E-1
3.295225542E0,-1.467016935E-1,2.418643087E-1,1.332140528E-3,2.828807263E-1
3.305246542E0,-1.561100781E-1,2.227055430E-1,1.654393785E-2,2.724735166E-1
3.315267542E0,-1.583199650E-1,1.942563206E-1,2.411317453E-2,2.517581669E-1
3.325288542E0,-1.625426561E-1,1.659562588E-1,3.592997417E-2,2.350586265E-1
3.335309542E0,-1.603673846E-1,1.286048889E-1,4.350586608E-2,2.101182426E-1
3.345329542E0,-1.574993283E-1,6.280662864E-2,6.733895093E-2,1.824424438E-1
3.355350542E0,-1.555275172E-1,-3.969683871E-2,7.935167104E-2,1.790567935E-1
3.365371542E0,-1.400751024E-1,-1.526420563E-1,9.957580268E-2,2.298607669E-1
3.375392542E0,-1.275137812E-1,-2.556773424E-1,1.152799353E-1,3.080911088E-1
3.385413542E0,-1.234988496E-1,-3.197281659E-1,1.324916631E-1,3.674671505E-1
3.395433542E0,-1.225954965E-1,-3.502621055E-1,1.455158591E-1,3.986076561E-1
3.405454542E0,-1.217047125E-1,-3.822131455E-1,1.592616290E-1,4.315821962E-1
3.415475542E0,-1.201552898E-1,-4.475151896E-1,1.712983251E-1,4.940144277E-1
3.425496542E0,-1.058762372E-1,-5.366452932E-1,1.828323752E-1,5.767370508E-1
3.435516542E0,-1.174045280E-1,-6.285871863E-1,1.974150538E-1,6.692371609E-1
3.445537542E0,-1.346708387E-1,-7.061453462E-1,2.162247747E-1,7.506867775E-1
3.455558542E0,-1.523262709E-1,-7.576511502E-1,2.349678427E-1,8.077428089E-1
3.465579542E0,-1.669131964E-1,-7.739441395E-1,2.579967380E-1,8.327135540E-1
3.475600542E0,-1.872427613E-1,-7.746233940E-1,2.877825201E-1,8.473016187E-1
3.485620542E0,-2.076393813E-1,-7.461940646E-1,3.147239685E-1,8.360447782E-1
3.495641542E0,-2.275326699E-1,-6.856918335E-1,3.457500637E-1,8.009291560E-1
3.505662542E0,-2.549552023E-1,-6.150687933E-1,3.768319190E-1,7.650582140E-1
3.515683542E0,-2.920077741E-1,-5.526136756E-1,4.027473927E-1,7.435427875E-1
3.525704542E0,-3.320297003E-1,-5.188658834E-1,4.242290556E-1,7.479544227E-1
3.535724542E0,-3.828952610E-1,-4.983968139E-1,4.413219988E-1,7.679669730E-1
3.545745542E0,-4.251837432E-1,-4.562005699E-1,4.547970295E-1,7.718422854E-1
3.555766542E0,-4.548255205E-1,-3.590015769E-1,4.660251737E-1,7.435911839E-1
3.565787542E0,-4.759332836E-1,-2.322308868E-1,4.688499868E-1,7.072934224E-1
3.575808542E0,-4.835352600E-1,-1.008808538E-1,4.687045813E-1,6.809311851E-1
3.585828542E0,-4.815631211E-1,2.142127790E-2,4.609970748E-1,6.669934136E-1
3.595849542E0,-4.700100422E-1,1.215372235E-1,4.584710598E-1,6.677398065E-1
3.605870542E0,-4.597333372E-1,1.865773797E-1,4.562324286E-1,6.740281068E-1
3.615891667E0,-4.454465210E-1,1.865305156E-1,4.481960833E-1,6.588595946E-1
3.625912667E0,-4.245510399E-1,1.233674288E-1,4.407960474E-1,6.243110310E-1
3.635932667E0,-4.065832198E-1,3.978719003E-3,4.304488599E-1,5.921249579E-1
3.645953667E0,-3.922377825E-1,-1.506127119E-1,4.171358645E-1,5.920616492E-1
3.655974667E0,-3.832006156E-1,-3.221088052E-1,4.023862183E-1,6.422705527E-1
3.665995667E0,-3.740183711E-1,-4.883004725E-1,3.824805319E-1,7.243054954E-1
3.676016667E0,-3.663889468E-1,-6.285787225E-1,3.693367839E-1,8.159422348E-1
3.686036667E0,-3.687844574E-1,-7.377395034E-1,3.518834114E-1,8.967070236E-1
3.696057667E0,-3.694446385E-1,-7.868040204E-1,3.369547725E-1,9.322491224E-1
3.706078667E0,-3.683645427E-1,-7.527191043E-1,3.226382732E-1,8.979832636E-1
3.716099667E0,-3.731387854E-1,-6.343379021E-1,3.097437918E-1,7.984725065E-1
3.726120667E0,-3.737089038E-1,-4.614142776E-1,2.927178442E-1,6.620009189E-1
3.736140667E0,-3.750431538E-1,-2.613272667E-1,2.741665244E-1,5.330258817E-1
3.746161667E0,-3.737162650E-1,-6.176590919E-2,2.476998121E-1,4.525859820E-1
3.756182667E0,-3.664482236E-1,1.298061758E-1,2.243460119E-1,4.488486125E-1
3.766203667E0,-3.610091507E-1,2.910461426E-1,2.008740306E-1,5.053571412E-1
3.776224667E0,-3.519693017E-1,4.081780910E-1,1.781804413E-1,5.676618826E-1
3.786244667E0,-3.424673080E-1,4.902312160E-1,1.608649939E-1,6.192641185E-1
3.796265667E0,-3.318953514E-1,5.406277776E-1,1.483180523E-1,6.514838162E-1
3.806286667E0,-3.212248385E-1,5.398797393E-1,1.363565028E-1,6.428441690E-1
3.816307667E0,-3.022681773E-1,4.860748053E-1,1.286408007E-1,5.866713074E-1
3.826328667E0,-2.818348408E-1,3.870210946E-1,1.151918992E-1,4.924280442E-1
3.836348667E0,-2.590230107E-1,2.624919415E-1,1.049688235E-1,3.834232561E-1
3.846369667E0,-2.289485335E-1,1.194832027E-1,1.002388969E-1,2.770225680E-1
3.856390667E0,-2.043340057E-1,-2.139722183E-2,9.702659398E-2,2.272100062E-1
3.866411667E0,-1.700471640E-1,-1.316985935E-1,9.306894243E-2,2.343552550E-1
3.876432667E0,-1.346726567E-1,-2.051533759E-1,8.830587566E-2,2.608113490E-1
3.886452667E0,-1.003799811E-1,-2.518127859E-1,8.508194238E-2,2.841210247E-1
3.896473667E0,-6.002084166E-2,-2.780382633E-1,7.278106362E-2,2.936066425E-1
3.906494667E0,-1.596096903E-2,-2.833691239E-1,6.854610890E-2,2.919783930E-1
3.916515667E0,2.774043940E-2,-2.547281384E-1,5.319777876E-2,2.616982235E-1
3.926536667E0,6.419196725E-2,-2.088394612E-1,4.530381039E-2,2.231299273E-1
3.936556667E0,1.088880673E-1,-1.542947143E-1,3.548447043E-2,1.921525897E-1
3.946577667E0,1.439851522E-1,-1.036920696E-1,2.883576788E-2,1.797644873E-1
3.956598667E0,1.842044741E-1,-6.072036549E-2,1.711199991E-2,1.947076568E-1
3.966619667E0,2.278068066E-1,-3.571542352E-2,8.429475129E-3,2.307435560E-1
3.976640667E0,2.706924975E-1,-3.228979930E-2,-1.856718445E-3,2.726178768E-1
3.986660667E0,3.078818321E-1,-2.564258873E-2,-1.954999939E-2,3.095657723E-1
3.996681667E0,3.410110176E-1,-8.316595107E-3,-3.064472787E-2,3.424861737E-1
4.006702667E0,3.687335849E-1,4.563840572E-3,-4.183005914E-2,3.711267157E-1
4.016723667E0,3.991460800E-1,1.804662496E-2,-5.783645436E-2,4.037181310E-1
4.026743667E0,4.282681644E-1,5.688078329E-2,-6.987815350E-2,4.376436912E-1
4.036764667E0,4.575975537E-1,1.165925860E-1,-8.097634465E-2,4.791101342E-1
4.046785667E0,4.819832742E-1,1.706033349E-1,-8.798808604E-2,5.188017712E-1
4.056806667E0,5.026291609E-1,2.170595229E-1,-9.596291929E-2,5.558415167E-1
4.066827667E0,5.146756172E-1,2.539917529E-1,-1.066949368E-1,5.837693132E-1
4.076847667E0,5.259133577E-1,2.785005569E-1,-1.084334478E-1,6.049010106E-1
4.086868667E0,5.235193372E-1,2.800259888E-1,-1.105491072E-1,6.039107185E-1
4.096889667E0,5.252783895E-1,2.782363296E-1,-1.107091606E-1,6.046398595E-1
4.106910667E0,5.137102008E-1,2.791921794E-1,-1.131971329E-1,5.955334032E-1
4.116931667E0,5.109655261E-1,2.797879279E-1,-1.187024191E-1,5.945227647E-1
4.126951667E0,5.159291625E-1,2.780981958E-1,-1.273237467E-1,5.997773284E-1
4.136972667E0,5.249572396E-1,2.649213970E-1,-1.374064684E-1,6.038575888E-1
4.146993667E0,5.408176184E-1,2.591430843E-1,-1.519619226E-1,6.186527786E-1
4.157014667E0,5.516960621E-1,2.822593153E-1,-1.567050070E-1,6.392146159E-1
4.167035667E0,5.709567070E-1,3.322767317E-1,-1.596055180E-1,6.796126169E-1
4.177055667E0,5.979052186E-1,3.958711624E-1,-1.560999900E-1,7.338745360E-1
4.187076667E0,6.439555883E-1,4.751382768E-1,-1.510280669E-1,8.143983416E-1
4.197097667E0,6.995690465E-1,5.267282128E-1,-1.491065919E-1,8.882973808E-1
4.207118667E0,7.580434084E-1,5.039392710E-1,-1.479332596E-1,9.222086787E-1
4.217139667E0,8.093555570E-1,3.823190629E-1,-1.427158713E-1,9.064171796E-1
4.227159667E0,8.657771349E-1,1.772479862E-1,-1.393963844E-1,8.946609681E-1
4.237180667E0,9.177335501E-1,-8.762202412E-2,-1.271008402E-1,9.306272678E-1
4.247201667E0,9.710966945E-1,-3.795369565E-1,-1.179820001E-1,1.049283967E0
4.257222667E0,1.019242406E0,-6.434447765E-1,-1.097400486E-1,1.210338441E0
4.267243667E0,1.068697333E0,-8.581631780E-1,-1.100152805E-1,1.375013233E0
4.277263667E0,1.109888673E0,-1.008841753E0,-1.164089963E-1,1.504382133E0
4.287284667E0,1.147969604E0,-1.079123020E0,-1.292576343E-1,1.580837828E0
4.297305667E0,1.178406954E0,-1.066258430E0,-1.455242187E-1,1.595846887E0
4.307326667E0,1.193756819E0,-9.864421487E-1,-1.656914204E-1,1.557426435E0
4.317347667E0,1.199319363E0,-8.704712987E-1,-1.825241894E-1,1.493118313E0
4.327367667E0,1.205725431E0,-7.342710495E-1,-1.990567446E-1,1.425675762E0
4.337388667E0,1.203781843E0,-5.848461390E-1,-2.147060186E-1,1.355446202E0
4.347409667E0,1.196532369E0,-4.344733655E-1,-2.331923991E-1,1.294154361E0
4.357430667E0,1.188220859E0,-3.061247170E-1,-2.519842088E-1,1.252628114E0
4.367451667E0,1.176776648E0,-2.045901865E-1,-2.735139728E-1,1.225344978E0
4.377471667E0,1.164241672E0,-1.023287997E-1,-2.864036858E-1,1.203310818E0
4.387492667E0,1.155642152E0,6.744139828E-3,-3.005020916E-1,1.194092029E0
4.397513667E0,1.141281962E0,1.020895690E-1,-3.164557517E-1,1.188735059E0
4.407534667E0,1.126858473E0,1.705839187E-1,-3.190637231E-1,1.183516181E0
4.417555667E0,1.105181217E0,2.205514759E-1,-3.282708228E-1,1.173810125E0
4.427575667E0,1.087921381E0,2.649226487E-1,-3.299345970E-1,1.167310490E0
4.437596667E0,1.071352482E0,3.095806539E-1,-3.333849609E-1,1.163950967E0
4.447617667E0,1.050043941E0,3.517140746E-1,-3.282588124E-1,1.155010353E0
4.457638667E0,1.030798435E0,3.781659305E-1,-3.250803053E-1,1.145090429E0
4.467659667E0,1.001191258E0,3.747256398E-1,-3.161592185E-1,1.114791412E0
4.477679667E0,9.690534472E-1,3.418190777E-1,-3.140702546E-1,1.074497552E0
4.487700667E0,9.370529652E-1,3.044636250E-1,-3.005408347E-1,1.030092788E0
4.497721667E0,9.041386843E-1,2.735664248E-1,-2.963937521E-1,9.900275781E-1
4.507742667E0,8.687208295E-1,2.495387048E-1,-2.920593321E-1,9.498653053E-1
4.517763667E0,8.333316445E-1,2.356276810E-1,-2.788186371E-1,9.097812189E-1
4.527783667E0,7.995624542E-1,2.168510407E-1,-2.746648192E-1,8.727916447E-1
4.537804667E0,7.714956403E-1,1.984017193E-1,-2.681488693E-1,8.405192332E-1
4.547825667E0,7.403372526E-1,1.861187369E-1,-2.594432235E-1,8.062569181E-1
4.557846667E0,7.006449699E-1,1.674145609E-1,-2.474097311E-1,7.616709159E-1
4.567866667E0,6.578838825E-1,1.407472193E-1,-2.410326451E-1,7.146451697E-1
4.577887667E0,6.120327711E-1,1.064691395E-1,-2.341275960E-1,6.638791470E-1
4.587908667E0,5.708253980E-1,5.969072133E-2,-2.237789929E-1,6.160208234E-1
4.597929667E0,5.193712711E-1,9.843537584E-3,-2.184542716E-1,5.635296632E-1
4.607950667E0,4.607025981E-1,-2.314995043E-2,-2.090505362E-1,5.064434132E-1
4.617970917E0,4.015732408E-1,-4.180059955E-2,-1.940164566E-1,4.479405577E-1
4.627991917E0,3.504589200E-1,-7.247611880E-2,-1.772238761E-1,3.993526570E-1
4.638012917E0,2.971046269E-1,-1.529850811E-1,-1.664703041E-1,3.733469653E-1
4.648033917E0,2.505801022E-1,-2.195821702E-1,-1.674249023E-1,3.728777481E-1
4.658054917E0,2.092608958E-1,-2.595711350E-1,-1.546569169E-1,3.675405537E-1
4.668074917E0,1.658167243E-1,-3.298146725E-1,-1.455817074E-1,3.968210400E-1
4.678095917E0,1.213544533E-1,-4.104160368E-1,-1.454291046E-1,4.520153217E-1
4.688116917E0,6.323073059E-2,-4.740349352E-1,-1.348586380E-1,4.968843903E-1
4.698137917E0,6.421243772E-3,-5.002095699E-1,-1.215231121E-1,5.147996824E-1
4.708158917E0,-4.988310114E-2,-4.850133061E-1,-1.056010872E-1,4.988765584E-1
4.718178917E0,-1.201468855E-1,-4.659280479E-1,-8.012342453E-2,4.877950216E-1
4.728199917E0,-1.890559942E-1,-4.353635013E-1,-6.400361657E-2,4.789363320E-1
4.738220917E0,-2.452383041E-1,-3.759292066E-1,-4.725606367E-2,4.513288488E-1
4.748241917E0,-3.063912094E-1,-2.827478051E-1,-3.155918792E-2,4.181122778E-1
4.758262917E0,-3.665754497E-1,-1.463486552E-1,-1.239987370E-2,3.949040973E-1
4.768282917E0,-4.249773622E-1,1.575177535E-2,1.671762764E-2,4.255976455E-1
4.778303917E0,-4.806582034E-1,1.560084820E-1,3.814568743E-2,5.067800789E-1
4.788324917E0,-5.327336192E-1,2.379963100E-1,5.574714020E-2,5.861357319E-1
4.798345917E0,-5.883281827E-1,2.540865839E-1,6.882272661E-2,6.445359651E-1
4.808366917E0,-6.432103515E-1,2.097217739E-1,7.434017956E-2,6.806094629E-1
4.818386917E0,-7.099400759E-1,1.685423851E-1,7.184772938E-2,7.332008887E-1
4.828407917E0,-7.889152765E-1,1.196167022E-1,8.591067046E-2,8.025435267E-1
4.838428917E0,-8.668726683E-1,8.230208606E-2,9.333077073E-2,8.757582367E-1
4.848449917E0,-9.507414103E-1,5.815574154E-2,1.015927419E-1,9.579208760E-1
4.858470917E0,-1.034682870E0,5.650324747E-2,1.076841876E-1,1.041804753E0
4.868490917E0,-1.126641154E0,3.759931773E-2,1.209780201E-1,1.133741452E0
4.878511917E0,-1.192090750E0,-2.354180068E-2,1.206139699E-1,1.198408237E0
4.888532917E0,-1.259114385E0,-1.142187864E-1,1.306230426E-1,1.271014297E0
4.898553917E0,-1.306697607E0,-2.089825869E-1,1.401273310E-1,1.330702080E0
4.908574917E0,-1.349507093E0,-2.954839170E-1,1.440448761E-1,1.388966906E0
4.918594917E0,-1.394243121E0,-3.425382376E-1,1.456683278E-1,1.443075045E0
4.928615917E0,-1.441417217E0,-3.384431303E-1,1.483179182E-1,1.488027403E0
4.938636917E0,-1.466007233E0,-2.601842880E-1,1.552280337E-1,1.496986577E0
4.948657917E0,-1.489455462E0,-1.454240978E-1,1.569591612E-1,1.504746463E0
4.958678917E0,-1.513576984E0,-1.790741645E-2,1.606114209E-1,1.522180013E0
4.968698917E0,-1.539068580E0,1.287297010E-1,1.615372747E-1,1.552867580E0
4.978719917E0,-1.580435395E0,2.417987287E-1,1.556644589E-1,1.606385411E0
4.988740917E0,-1.633996367E0,3.044229448E-1,1.443450004E-1,1.668368346E0
4.998761917E0,-1.679533005E0,3.387713134E-1,1.342521608E-1,1.718610124E0
5.008782917E0,-1.717050552E0,3.720920980E-1,1.232412234E-1,1.761222169E0
5.018802917E0,-1.734092355E0,3.927382529E-1,1.135353297E-1,1.781631247E0
5.028823917E0,-1.747654676E0,4.044550657E-1,1.016466394E-1,1.796722797E0
5.038844917E0,-1.757557392E0,4.007769525E-1,8.092990518E-2,1.804488792E0
5.048865917E0,-1.763886333E0,3.837076724E-1,6.039791182E-2,1.806149075E0
5.058886917E0,-1.763418198E0,3.652170897E-1,4.877694324E-2,1.801501166E0
5.068906917E0,-1.750438809E0,3.523990810E-1,4.347777367E-2,1.786088311E0
5.078927917E0,-1.731985331E0,3.350440562E-1,4.791167006E-2,1.764744523E0
5.088948917E0,-1.710342765E0,2.909417450E-1,5.751318112E-2,1.735864983E0
5.098969917E0,-1.687554717E0,2.030113786E-1,7.101194561E-2,1.701204644E0
5.108990917E0,-1.663584352E0,8.818892390E-2,7.892584056E-2,1.667788796E0
5.119010917E0,-1.638477921E0,-4.270837456E-2,9.300943464E-2,1.641671301E0
5.129031917E0,-1.605016828E0,-1.765814424E-1,1.023428217E-1,1.617941308E0
5.139052917E0,-1.570229530E0,-2.988346517E-1,1.114937142E-1,1.602296407E0
5.149073917E0,-1.520351291E0,-3.620594740E-1,1.206090599E-1,1.567514483E0
5.159093917E0,-1.471299887E0,-3.472158313E-1,1.338135302E-1,1.517625860E0
5.169114917E0,-1.418278098E0,-2.802529633E-1,1.473970413E-1,1.453196606E0
5.179135917E0,-1.366688371E0,-1.877259910E-1,1.617543995E-1,1.388971791E0
5.189156917E0,-1.326180816E0,-1.219946668E-1,1.733298749E-1,1.343012100E0
5.199177917E0,-1.282383800E0,-1.082745939E-1,1.920007616E-1,1.301190182E0
5.209197917E0,-1.242443681E0,-1.582048386E-1,2.063062489E-1,1.269353118E0
5.219218917E0,-1.201693535E0,-2.579921484E-1,2.145431340E-1,1.247660233E0
5.229239917E0,-1.154598594E0,-3.448684812E-1,2.241072655E-1,1.225665635E0
5.239260917E0,-1.103228092E0,-3.805047870E-1,2.243059278E-1,1.188364113E0
5.249281917E0,-1.052667499E0,-3.546763957E-1,2.233044654E-1,1.133035345E0
5.259301917E0,-1.003823757E0,-2.997457683E-1,2.287716717E-1,1.072308789E0
5.269322917E0,-9.497326016E-1,-2.394456863E-1,2.295778096E-1,1.005998122E0
5.279343917E0,-8.984755874E-1,-1.826481819E-1,2.324396372E-1,9.458577718E-1
5.289364917E0,-8.410151601E-1,-1.316148192E-1,2.371378392E-1,8.836647073E-1
5.299385917E0,-7.896195650E-1,-7.592704892E-2,2.392356098E-1,8.285515380E-1
5.309405917E0,-7.436189651E-1,-3.698067740E-2,2.421829849E-1,7.829363538E-1
5.319426917E0,-6.983284354E-1,-7.374849636E-3,2.430937737E-1,7.394670885E-1
5.329447917E0,-6.618956327E-1,1.859946735E-2,2.419697046E-1,7.049830543E-1
5.339468917E0,-6.247003675E-1,3.156826273E-2,2.365115583E-1,6.687187911E-1
5.349489917E0,-5.897834301E-1,2.729692124E-2,2.271847576E-1,6.326156261E-1
5.359509917E0,-5.563902855E-1,2.183131687E-2,2.181430608E-1,5.980243734E-1
5.369530917E0,-5.241472125E-1,3.622354195E-2,2.115346938E-1,5.663827081E-1
5.379551917E0,-4.927515090E-1,5.819994956E-2,2.026889920E-1,5.359795809E-1
5.389572917E0,-4.625937343E-1,9.425604343E-2,1.972901374E-1,5.116645024E-1
5.399593917E0,-4.344039261E-1,1.320947707E-1,1.959939748E-1,4.945396219E-1
5.409613917E0,-4.131439924E-1,1.621507406E-1,1.987719536E-1,4.863035170E-1
5.419634917E0,-3.990561366E-1,1.910684109E-1,1.961506009E-1,4.839710694E-1
5.429655917E0,-3.820393980E-1,2.116432935E-1,1.935579479E-1,4.777150453E-1
5.439676917E0,-3.668497801E-1,2.135415971E-1,1.841902882E-1,4.627146390E-1
5.449697917E0,-3.423679471E-1,2.050111890E-1,1.747576892E-1,4.356439472E-1
5.459717917E0,-3.285690248E-1,1.611100435E-1,1.609207094E-1,3.997618352E-1
5.469738917E0,-3.092462122E-1,1.115353107E-1,1.430384219E-1,3.585154606E-1
5.479759917E0,-2.862157226E-1,6.095761806E-2,1.261483878E-1,3.186670469E-1
5.489780917E0,-2.612292767E-1,1.783404872E-2,1.086532399E-1,2.834860046E-1
5.499801917E0,-2.442345917E-1,-4.867946357E-2,8.691918105E-2,2.637710560E-1
5.509821917E0,-2.270042598E-1,-1.101446003E-1,8.404290676E-2,2.659435600E-1
5.519842917E0,-2.092036903E-1,-1.709416360E-1,9.110215306E-2,2.851084517E-1
5.529863917E0,-1.928935647E-1,-2.228264660E-1,8.925557137E-2,3.079384975E-1
5.539884917E0,-1.769545525E-1,-2.414709926E-1,8.320300281E-2,3.107151325E-1
5.549905917E0,-1.576019078E-1,-2.145674676E-1,7.970489562E-2,2.779036342E-1
5.559925917E0,-1.377469748E-1,-1.601217985E-1,7.879515737E-2,2.254371226E-1
5.569946917E0,-1.197343320E-1,-1.017870978E-1,7.450138777E-2,1.739177400E-1
5.579967917E0,-9.968658537E-2,-4.225026816E-2,5.464858562E-2,1.212805358E-1
5.589988917E0,-9.390110523E-2,9.768209420E-3,3.572642803E-2,1.009416323E-1
5.600008917E0,-9.185100347E-2,4.017325491E-2,1.776766405E-2,1.018144741E-1
5.610030167E0,-9.885513783E-2,4.702369124E-2,-6.568654906E-3,1.096663715E-1
5.620051167E0,-1.135278195E-1,4.478370771E-2,-2.846197039E-2,1.253165194E-1
5.630072167E0,-1.278499365E-1,7.068766654E-2,-4.752042517E-2,1.536246831E-1
5.640093167E0,-1.444478333E-1,1.299736351E-1,-5.305127800E-2,2.014268117E-1
5.650113167E0,-1.579621732E-1,1.904149204E-1,-6.262858957E-2,2.552101689E-1
5.660134167E0,-1.711522788E-1,2.460699230E-1,-6.950993091E-2,3.076932564E-1
5.670155167E0,-1.741462350E-1,3.103929758E-1,-8.142580092E-2,3.651039190E-1
5.680176167E0,-1.702651978E-1,3.695108891E-1,-9.036736190E-2,4.167670750E-1
5.690197167E0,-1.743441224E-1,4.217160344E-1,-1.003654972E-1,4.672403233E-1
5.700217167E0,-1.671205610E-1,4.641796052E-1,-1.014243662E-1,5.036654543E-1
5.710238167E0,-1.688642353E-1,4.820811749E-1,-1.105591953E-1,5.226286681E-1
5.720259167E0,-1.636955738E-1,4.648808837E-1,-1.196147427E-1,5.071668005E-1
5.730280167E0,-1.561096907E-1,4.294288456E-1,-1.280633062E-1,4.745309046E-1
5.740301167E0,-1.490203589E-1,3.961036503E-1,-1.365438700E-1,4.446902266E-1
5.750321167E0,-1.478257924E-1,3.652980030E-1,-1.416629404E-1,4.187642350E-1
5.760342167E0,-1.415031850E-1,3.336143792E-1,-1.442984045E-1,3.900560663E-1
5.770363167E0,-1.276744157E-1,3.025857508E-1,-1.409808844E-1,3.573996402E-1
5.780384167E0,-1.170278937E-1,2.426153421E-1,-1.393861771E-1,3.032923317E-1
5.790405167E0,-1.056185067E-1,1.690789163E-1,-1.342077255E-1,2.403219975E-1
5.800425167E0,-8.490896970E-2,9.527312964E-2,-1.241287291E-1,1.780293340E-1
5.810446167E0,-7.125632465E-2,2.351993881E-2,-1.167129502E-1,1.387536092E-1
5.820467167E0,-6.143591553E-2,-2.961465344E-2,-1.082997620E-1,1.279853033E-1
5.830488167E0,-5.292269215E-2,-7.460720092E-2,-9.813109785E-2,1.341519964E-1
5.840509167E0,-4.365489259E-2,-1.141588688E-1,-8.334016800E-2,1.479309994E-1
5.850529167E0,-3.018867970E-2,-1.339339316E-1,-7.176788151E-2,1.549202480E-1
5.860550167E0,-2.792898938E-2,-1.484090239E-1,-5.301123485E-2,1.600482985E-1
5.870571167E0,-2.097704448E-2,-1.576950699E-1,-4.122330993E-2,1.643384701E-1
5.880592167E0,-1.996211335E-2,-1.504635215E-1,-2.789365500E-2,1.543237287E-1
5.890613167E0,-2.386747673E-2,-9.756599367E-2,-2.036768757E-2,1.024871810E-1
5.900633167E0,-3.958838433E-2,3.071128391E-2,-3.865230829E-4,5.010561379E-2
5.910654167E0,-5.294694006E-2,2.694680989E-1,1.598017849E-2,2.750850793E-1
5.920675167E0,-7.900117338E-2,5.685451031E-1,3.356023878E-2,5.749878340E-1
5.930696167E0,-1.626618057E-1,8.400663137E-1,7.799965143E-2,8.592172136E-1
5.940717167E0,-1.471816450E-1,1.154039264E0,1.425237656E-1,1.172084503E0
5.950737167E0,-1.488433033E-1,1.450590730E0,1.950485259E-1,1.471193978E0
5.960758167E0,-1.578032374E-1,1.599868059E0,2.332944572E-1,1.624470982E0
5.970779167E0,-1.623212248E-1,1.609296441E0,2.545895576E-1,1.637375662E0
5.980800167E0,-1.597733796E-1,1.474384189E0,2.679620981E-1,1.507030177E0
5.990821167E0,-1.558737010E-1,1.207853675E0,2.738468051E-1,1.248278488E0
6.000841167E0,-1.536108106E-1,8.939969540E-1,2.657108605E-1,9.452137833E-1
6.010862167E0,-1.430788338E-1,5.689972639E-1,2.642879188E-1,6.434885726E-1
6.020883167E0,-1.261003762E-1,3.072740436E-1,2.605831921E-1,4.221637629E-1
6.030904167E0,-1.111288890E-1,7.350870222E-2,2.572009563E-1,2.896644459E-1
6.040925167E0,-1.056702659E-1,-1.453854740E-1,2.512188554E-1,3.088916548E-1
6.050945167E0,-9.607357532E-2,-3.167575002E-1,2.431278676E-1,4.107025758E-1
6.060966167E0,-9.253689647E-2,-4.274352789E-1,2.296884954E-1,4.939846149E-1
6.070987167E0,-9.564737976E-2,-4.701940119E-1,2.165169716E-1,5.264127934E-1
6.081008167E0,-9.644819796E-2,-4.506522715E-1,1.932356060E-1,4.997296510E-1
6.091028167E0,-9.203884751E-2,-3.837732673E-1,1.710133255E-1,4.301146680E-1
6.101049167E0,-8.277691156E-2,-2.656319737E-1,1.442877054E-1,3.134187367E-1
6.111070167E0,-7.827191055E-2,-1.226400957E-1,1.156282648E-1,1.858412782E-1
6.121091167E0,-7.487051934E-2,9.277187288E-3,8.934579045E-2,1.169372958E-1
6.131112167E0,-9.525059164E-2,9.912495315E-2,5.931670964E-2,1.497227557E-1
6.141133167E0,-1.166248545E-1,1.838499606E-1,2.413448878E-2,2.190539619E-1
6.151153167E0,-1.342803091E-1,2.709720731E-1,-3.089229343E-3,3.024344708E-1
6.161174167E0,-1.471132785E-1,3.758659959E-1,-3.240424022E-2,4.049291276E-1
6.171195167E0,-1.614774317E-1,5.317302346E-1,-5.699805170E-2,5.586240070E-1
6.181216167E0,-1.650878787E-1,6.792579293E-1,-7.495468855E-2,7.030387952E-1
6.191237167E0,-1.777159274E-1,7.695507407E-1,-9.967382252E-2,7.960691957E-1
6.201257167E0,-1.797931939E-1,7.753657699E-1,-1.227682233E-1,8.053506729E-1
6.211278167E0,-1.865538359E-1,7.034505606E-1,-1.444839537E-1,7.419707796E-1
6.221299167E0,-1.903594881E-1,5.825691223E-1,-1.613159329E-1,6.337557473E-1
6.231320167E0,-1.971125454E-1,4.365479946E-1,-1.690012813E-1,5.079261169E-1
6.241340167E0,-1.976462454E-1,2.824127376E-1,-1.692247242E-1,3.840026041E-1
6.251361167E0,-1.884189546E-1,1.294504553E-1,-1.547268778E-1,2.760426227E-1
6.261382167E0,-1.748152524E-1,-5.261388421E-2,-1.385822594E-1,2.292021726E-1
6.271403167E0,-1.552793980E-1,-2.722313404E-1,-1.199926287E-1,3.355887738E-1
6.281424167E0,-1.320877969E-1,-4.879276752E-1,-9.574294835E-2,5.144777104E-1
6.291444167E0,-1.090241000E-1,-6.777574420E-1,-7.119541615E-2,6.901522961E-1
6.301465167E0,-8.695368469E-2,-8.303824067E-1,-5.474506319E-2,8.367155470E-1
6.311486167E0,-6.174272671E-2,-9.319122434E-1,-3.329373896E-2,9.345485898E-1
6.321507167E0,-3.670182079E-2,-9.999304414E-1,-2.183415554E-2,1.000841966E0
6.331528167E0,-1.448624022E-2,-1.038987398E0,-1.355909370E-2,1.039176844E0
6.341548167E0,7.313597016E-3,-1.049240828E0,-1.604435593E-2,1.049388977E0
6.351569167E0,2.717144415E-2,-1.008165479E0,-1.659274288E-2,1.008668052E0
6.361590167E0,4.265799373E-2,-9.332877398E-1,-2.120134421E-2,9.345026520E-1
6.371611167E0,5.717333406E-2,-8.304879069E-1,-2.358922735E-2,8.327877313E-1
6.381632167E0,6.716977805E-2,-6.950451136E-1,-2.401666343E-2,6.986961350E-1
6.391652167E0,7.819639891E-2,-5.190700293E-1,-3.057283908E-2,5.258165750E-1
6.401673167E0,8.986237645E-2,-3.105333447E-1,-4.140524566E-2,3.259150185E-1
6.411694167E0,1.088838652E-1,-9.286367148E-2,-4.512114823E-2,1.500509100E-1
6.421715167E0,1.231893003E-1,1.010674462E-1,-4.871534929E-2,1.666235807E-1
6.431736167E0,1.381874382E-1,2.513994277E-1,-5.532921851E-2,2.921622199E-1
6.441756167E0,1.474248767E-1,3.499427736E-1,-6.029148772E-2,3.844855037E-1
6.451777167E0,1.491798460E-1,3.830916882E-1,-5.962351710E-2,4.154140486E-1
6.461798167E0,1.474597007E-1,3.638553917E-1,-5.612359196E-2,3.965916880E-1
6.471819167E0,1.460469216E-1,3.021121323E-1,-5.925644934E-2,3.407532400E-1
6.481840167E0,1.479454935E-1,2.309873700E-1,-6.410793215E-2,2.816963988E-1
6.491860167E0,1.500129551E-1,1.726393849E-1,-6.467100978E-2,2.376774777E-1
6.501881167E0,1.541408449E-1,1.277358234E-1,-6.929399073E-2,2.118430971E-1
6.511902167E0,1.551619768E-1,8.415657282E-2,-7.575818151E-2,1.920855795E-1
6.521923167E0,1.548655778E-1,3.386437893E-2,-7.778670639E-2,1.765811854E-1
6.531944167E0,1.523894668E-1,-3.348521143E-2,-7.940669358E-2,1.750692205E-1
6.541964167E0,1.424225867E-1,-1.219730005E-1,-7.779468596E-2,2.030113770E-1
6.551985167E0,1.355979741E-1,-2.273128480E-1,-7.675834000E-2,2.755898840E-1
6.562006167E0,1.325885952E-1,-3.370699883E-1,-7.284002751E-2,3.694612052E-1
6.572027167E0,1.312081516E-1,-4.227632582E-1,-7.077644765E-2,4.482785485E-1
6.582048167E0,1.280672103E-1,-4.781878889E-1,-6.745788455E-2,4.996152856E-1
6.592068167E0,1.218013391E-1,-5.050330758E-1,-6.549482048E-2,5.236253865E-1
6.602089167E0,1.147349104E-1,-4.937250316E-1,-6.310490519E-2,5.107942204E-1
6.612109667E0,1.013977975E-1,-4.514775574E-1,-5.487051606E-2,4.659659555E-1
6.622130667E0,8.985832334E-2,-3.890421391E-1,-4.724562168E-2,4.020702090E-1
6.632151667E0,7.688871771E-2,-3.172884881E-1,-3.777002916E-2,3.286494100E-1
6.642171667E0,6.023729965E-2,-2.427548766E-1,-3.096964397E-2,2.520269455E-1
6.652192667E0,4.747170582E-2,-1.909585148E-1,-2.125842869E-2,1.979157347E-1
6.662213667E0,2.841944993E-2,-1.383365840E-1,-1.211632881E-2,1.417444215E-1
6.672234667E0,9.294841439E-3,-9.276879579E-2,-3.003752092E-3,9.328164919E-2
6.682254667E0,-1.585418731E-2,-5.151084065E-2,2.254659543E-3,5.394261256E-2
6.692275667E0,-3.575282544E-2,-2.016315982E-2,8.471566252E-3,4.191163294E-2
6.702296667E0,-5.309825763E-2,6.731450558E-4,1.604958996E-2,5.547492610E-2
6.712317667E0,-6.479292363E-2,1.488737576E-2,2.338542044E-2,7.047435561E-2
6.722338667E0,-7.098690420E-2,2.691314556E-2,2.544724010E-2,8.006884538E-2
6.732358667E0,-7.418987900E-2,4.356243461E-2,2.905187011E-2,9.080658023E-2
6.742379667E0,-7.647354156E-2,5.546223745E-2,3.206017613E-2,9.976029889E-2
6.752400667E0,-7.316911966E-2,6.213786080E-2,3.901020810E-2,1.036177116E-1
6.762421667E0,-7.181410491E-2,4.947985709E-2,4.310880974E-2,9.728253389E-2
6.772442667E0,-7.050979137E-2,1.974317059E-2,4.499936476E-2,8.594397183E-2
6.782462667E0,-6.316798925E-2,-2.043141238E-2,5.049186572E-2,8.340902818E-2
6.792483667E0,-6.056679040E-2,-5.752025917E-2,5.615894869E-2,1.006515963E-1
6.802504667E0,-5.093972385E-2,-9.343778342E-2,5.992465839E-2,1.221328765E-1
6.812525667E0,-4.143103957E-2,-1.253054887E-1,5.658883229E-2,1.435976757E-1
6.822546667E0,-3.275126219E-2,-1.448528171E-1,5.970712751E-2,1.600622531E-1
6.832566667E0,-2.214615978E-2,-1.517748535E-1,5.630036071E-2,1.633884609E-1
6.842587667E0,-1.619852334E-2,-1.496267468E-1,5.564548820E-2,1.604586422E-1
6.852608667E0,-1.196372788E-2,-1.404475868E-1,5.624189973E-2,1.517623362E-1
6.862629667E0,-3.508991562E-3,-1.258625090E-1,5.588903278E-2,1.377580059E-1
6.872650667E0,-3.160555847E-3,-1.063397527E-1,5.575415120E-2,1.201110215E-1
6.882670667E0,-1.060653478E-3,-9.100261331E-2,5.787296221E-2,1.078511955E-1
6.892691667E0,-5.666640587E-3,-8.337390423E-2,5.794277042E-2,1.016891507E-1
6.902712667E0,-1.294795424E-3,-7.586858422E-2,5.494005606E-2,9.368099234E-2
6.912733667E0,9.455871768E-4,-6.830696762E-2,4.902449250E-2,8.408410566E-2
6.922754667E0,2.428168897E-3,-6.010149792E-2,4.243130237E-2,7.361047125E-2
6.932774667E0,2.703918610E-3,-6.428766996E-2,3.692694008E-2,7.418769836E-2
6.942795667E0,2.203776967E-3,-6.910692900E-2,3.262433782E-2,7.645241453E-2
6.952816667E0,1.990338787E-4,-6.636943668E-2,2.536566369E-2,7.105180247E-2
6.962837667E0,-2.740030177E-3,-5.877356976E-2,2.461758070E-2,6.377982085E-2
6.972858667E0,-1.020161621E-2,-4.057802632E-2,2.412644587E-2,4.829839111E-2
6.982878667E0,-1.540756412E-2,-3.094856814E-2,2.037431858E-2,4.012878966E-2
6.992899667E0,-1.981370151E-2,-2.874222398E-2,2.062418126E-2,4.054694883E-2
7.002920667E0,-2.393680997E-2,-2.421298623E-2,1.421794854E-2,3.689701390E-2
7.012941667E0,-2.582735009E-2,-2.044779435E-2,1.330461446E-2,3.552713150E-2
7.022962667E0,-2.737650834E-2,-1.120369602E-2,8.407060988E-3,3.075182414E-2
7.032982667E0,-3.231577575E-2,-7.594648749E-3,7.111935876E-3,3.394948724E-2
7.043003667E0,-3.388997167E-2,-5.552803166E-3,5.555584561E-3,3.478833602E-2
7.053024667E0,-4.135721177E-2,-4.021910019E-3,-1.217787969E-3,4.157015435E-2
7.063045667E0,-5.182342976E-2,-2.652245807E-3,-2.456690650E-3,5.194937545E-2
7.073066667E0,-6.091663614E-2,5.297355354E-3,-8.231942542E-3,6.169816375E-2
7.083086667E0,-7.424203306E-2,1.894525811E-2,-1.195237879E-2,7.754780227E-2
7.093107667E0,-8.594426513E-2,4.150024056E-2,-1.524730958E-2,9.664971353E-2
7.103128667E0,-1.009727493E-1,7.529814541E-2,-1.546329074E-2,1.269031921E-1
7.113149667E0,-1.178576276E-1,1.136349216E-1,-1.498841215E-2,1.644018500E-1
7.123170667E0,-1.297539771E-1,1.586066633E-1,-1.459000353E-2,2.054386439E-1
7.133190667E0,-1.423155218E-1,1.910558492E-1,-1.580247656E-2,2.387587978E-1
7.143211667E0,-1.528810859E-1,2.170286030E-1,-1.668584719E-2,2.659933428E-1
7.153232667E0,-1.637814641E-1,2.316694111E-1,-1.696904749E-2,2.842235609E-1
7.163253667E0,-1.687967181E-1,2.292922735E-1,-1.814509928E-2,2.853007595E-1
7.173274667E0,-1.746128798E-1,2.138403207E-1,-1.561588980E-2,2.765161777E-1
7.183294667E0,-1.790001690E-1,1.854502261E-1,-1.627981663E-2,2.582593257E-1
7.193315667E0,-1.799290627E-1,1.460546106E-1,-1.340751071E-2,2.321339661E-1
7.203336667E0,-1.807181537E-1,9.900615364E-2,-1.266368944E-2,2.064500874E-1
7.213357667E0,-1.825365424E-1,4.836482182E-2,-9.250539355E-3,1.890616772E-1
7.223378667E0,-1.770411134E-1,-1.433270518E-4,-9.591157548E-3,1.773007802E-1
7.233398667E0,-1.744178534E-1,-3.453190625E-2,-1.022055466E-2,1.780968833E-1
7.243419667E0,-1.635252684E-1,-6.129747257E-2,-8.735043928E-3,1.748547813E-1
7.253440667E0,-1.540390849E-1,-8.867823333E-2,-8.446357213E-3,1.779415907E-1
7.263461667E0,-1.403855830E-1,-1.149380654E-1,-5.961094983E-3,1.815334830E-1
7.273482667E0,-1.284741312E-1,-1.323612928E-1,-6.228959654E-3,1.845641194E-1
7.283502667E0,-1.138792038E-1,-1.399507672E-1,-5.073147826E-3,1.805004906E-1
7.293523667E0,-1.011283621E-1,-1.489862651E-1,-4.509331193E-4,1.800668102E-1
7.303544667E0,-8.848393708E-2,-1.533993930E-1,2.323281951E-3,1.771049929E-1
7.313565667E0,-7.738111168E-2,-1.637690216E-1,1.197531004E-3,1.811341022E-1
7.323585667E0,-6.950774789E-2,-1.709166765E-1,5.605029291E-4,1.845105728E-1
7.333606667E0,-5.595216900E-2,-1.766698658E-1,-3.958006273E-4,1.853187615E-1
7.343627667E0,-4.722152650E-2,-1.767380387E-1,8.281881455E-4,1.829395878E-1
7.353648667E0,-3.619686514E-2,-1.664398760E-1,-1.296834904E-3,1.703353373E-1
7.363669667E0,-2.954348736E-2,-1.413659453E-1,-3.487551119E-3,1.444621444E-1
7.373689667E0,-2.604375407E-2,-1.087201908E-1,-4.063177388E-3,1.118698638E-1
7.383710667E0,-2.749384195E-2,-7.559952140E-2,-4.611521959E-3,8.057583456E-2
7.393731667E0,-3.058111668E-2,-3.977968916E-2,-7.783979177E-3,5.077616270E-2
7.403752667E0,-3.077526018E-2,-4.725300707E-3,-9.489201941E-3,3.254980890E-2
7.413773667E0,-3.627569228E-2,2.831603214E-2,-8.072715253E-3,4.672143254E-2
7.423793667E0,-4.265156388E-2,5.510423705E-2,-1.214468852E-2,7.073278096E-2
7.433814667E0,-4.989206046E-2,7.485454530E-2,-1.193710323E-2,9.074643289E-2
7.443835667E0,-5.048142001E-2,9.308175743E-2,-1.923256740E-2,1.076219261E-1
7.453856667E0,-5.192074925E-2,1.051913574E-1,-2.269497514E-2,1.194824162E-1
7.463877667E0,-5.431972444E-2,1.127968132E-1,-2.665136755E-2,1.280001912E-1
7.473897667E0,-5.229669064E-2,1.109978855E-1,-2.869978920E-2,1.260125086E-1
7.483918667E0,-5.607278645E-2,9.973244369E-2,-2.572716959E-2,1.172715011E-1
7.493939667E0,-5.305656791E-2,7.434034348E-2,-2.588492818E-2,9.492900280E-2
7.503960667E0,-5.081285536E-2,3.961884975E-2,-2.667801641E-2,6.973747978E-2
7.513981667E0,-4.725672677E-2,1.100840326E-2,-2.774051391E-2,5.589203234E-2
7.524001667E0,-4.458317906E-2,-2.166005969E-2,-2.747366577E-2,5.667115979E-2
7.534022667E0,-3.629939258E-2,-4.978862032E-2,-2.739607915E-2,6.743217161E-2
7.544043667E0,-3.503252566E-2,-7.167315483E-2,-2.726212330E-2,8.430624143E-2
7.554064667E0,-3.153550625E-2,-7.478290796E-2,-3.151723370E-2,8.706496137E-2
7.564085667E0,-3.111685812E-2,-6.592497230E-2,-2.986101434E-2,7.877842985E-2
7.574105667E0,-2.986286208E-2,-5.405076966E-2,-2.898460627E-2,6.821571397E-2
7.584126667E0,-2.752913162E-2,-4.511559755E-2,-3.178545460E-2,6.167321423E-2
7.594147667E0,-2.225302346E-2,-2.816399746E-2,-3.423059732E-2,4.959981450E-2
7.604168667E0,-2.478169464E-2,-2.799518639E-3,-3.729216754E-2,4.486285160E-2
7.614189208E0,-2.550039068E-2,2.930854447E-2,-3.883474693E-2,5.493084992E-2
7.624209208E0,-2.238768712E-2,5.481816456E-2,-4.512007162E-2,7.444501705E-2
7.634230208E0,-2.633746713E-2,7.969830185E-2,-4.929858819E-2,9.734388676E-2
7.644251208E0,-2.778463066E-2,1.015556678E-1,-4.730947316E-2,1.154284437E-1
7.654272208E0,-3.266429156E-2,1.254241616E-1,-5.324804038E-2,1.401196990E-1
7.664293208E0,-3.607899696E-2,1.392246634E-1,-5.061843619E-2,1.524710694E-1
7.674313208E0,-3.989174590E-2,1.375775337E-1,-5.289615691E-2,1.526988297E-1
7.684334208E0,-4.652301595E-2,1.289001554E-1,-5.407860130E-2,1.473232371E-1
7.694355208E0,-5.011757091E-2,1.129462942E-1,-4.952101409E-2,1.331201230E-1
7.704376208E0,-5.114182457E-2,9.470736980E-2,-4.992581159E-2,1.186488887E-1
7.714396208E0,-5.257233605E-2,8.163279295E-2,-4.861841351E-2,1.085887358E-1
7.724417208E0,-5.043488368E-2,7.301826775E-2,-4.684475064E-2,1.003482714E-1
7.734438208E0,-5.081919208E-2,6.241424382E-2,-4.500385746E-2,9.221429012E-2
7.744459208E0,-5.218565837E-2,5.335656554E-2,-3.952253982E-2,8.445292878E-2
7.754480208E0,-5.473563820E-2,4.461378604E-2,-4.111393541E-2,8.171129469E-2
7.764500208E0,-5.354360491E-2,4.198311642E-2,-3.728537261E-2,7.758671730E-2
7.774521208E0,-5.122150108E-2,4.441131651E-2,-3.507422656E-2,7.632960485E-2
7.784542208E0,-4.412550852E-2,5.499791354E-2,-3.178522363E-2,7.734423984E-2
7.794563208E0,-3.951179981E-2,6.241030991E-2,-3.021831065E-2,7.980836677E-2
7.804584208E0,-3.148183972E-2,6.892733276E-2,-2.589520253E-2,8.007899192E-2
7.814604208E0,-2.385346591E-2,7.004836947E-2,-2.366433665E-2,7.769017139E-2
7.824625208E0,-2.073703706E-2,6.711942703E-2,-2.124964818E-2,7.339339029E-2
7.834646208E0,-1.170614269E-2,5.947475880E-2,-1.738836616E-2,6.306057397E-2
7.844667208E0,-5.904180929E-3,4.689265415E-2,-1.144232694E-2,4.862825528E-2
7.854688208E0,-4.582949914E-3,2.854455449E-2,-9.020050988E-3,3.028458916E-2
7.864708208E0,-2.282511443E-3,4.259189591E-3,-7.992071100E-3,9.339365873E-3
7.874729208E0,4.802525975E-3,-1.730097830E-2,-5.800153594E-3,1.886875427E-2
7.884750208E0,8.342132904E-3,-3.779586777E-2,-3.906912170E-3,3.890222056E-2
7.894771208E0,1.509503834E-2,-5.992996320E-2,-3.273606766E-3,6.188842519E-2
7.904792208E0,1.805620641E-2,-7.620613277E-2,-1.198737882E-3,7.832520816E-2
7.914812208E0,2.366870269E-2,-9.022506326E-2,-2.222799812E-4,9.327818039E-2
7.924833208E0,2.490600944E-2,-9.369809180E-2,-3.831928363E-3,9.702744658E-2
7.934854208E0,2.848825231E-2,-9.514044970E-2,-1.637397334E-3,9.932757301E-2
7.944875208E0,3.329259530E-2,-9.945796430E-2,-5.095485831E-4,1.048834744E-1
7.954896208E0,3.250689432E-2,-1.045826003E-1,-1.296351198E-3,1.095257914E-1
7.964916208E0,3.374259919E-2,-1.076178104E-1,-8.619895671E-4,1.127869635E-1
7.974937208E0,3.561824188E-2,-1.107547581E-1,1.517990371E-3,1.163511061E-1
7.984958208E0,3.600253537E-2,-1.082274169E-1,3.326809499E-3,1.141070724E-1
7.994979208E0,3.603458777E-2,-1.108343527E-1,5.747811520E-4,1.165464526E-1
8.005000208E0,3.586307913E-2,-1.123885736E-1,-1.984516624E-3,1.179885173E-1
8.015020208E0,3.527695313E-2,-1.146309376E-1,-5.283509381E-3,1.200526166E-1
8.025041208E0,3.283456713E-2,-1.141459793E-1,-7.841209881E-3,1.190331801E-1
8.035062208E0,3.257427365E-2,-1.035687402E-1,-8.173964918E-3,1.088778258E-1
8.045083208E0,2.831241488E-2,-9.143724293E-2,-8.058916777E-3,9.605887970E-2
8.055104208E0,2.721908316E-2,-6.768519431E-2,-5.650542211E-3,7.317166559E-2
8.065124208E0,2.275349386E-2,-4.309889302E-2,-4.942407832E-3,4.898635991E-2
8.075145208E0,1.537685003E-2,-1.671935432E-2,-6.054305937E-3,2.350827399E-2
8.085166208E0,1.262287516E-2,5.801667925E-3,-7.856466807E-3,1.595996237E-2
8.095187208E0,5.665389821E-3,2.466937527E-2,-7.763968781E-3,2.647553454E-2
8.105208208E0,2.546561882E-3,3.756067157E-2,-9.986909106E-3,3.894903567E-2
8.115228208E0,-3.199667670E-3,4.224040732E-2,-1.254461333E-2,4.417982806E-2
8.125249208E0,-7.268711925E-3,4.456241801E-2,-1.703976281E-2,4.825968078E-2
8.135270208E0,-1.000831835E-2,4.721678793E-2,-1.804381981E-2,5.152835076E-2
8.145291208E0,-1.290796697E-2,3.833194822E-2,-1.971575245E-2,4.499627496E-2
8.155312208E0,-1.684850082E-2,2.515404485E-2,-1.705195941E-2,3.474719085E-2
8.165332208E0,-2.032099664E-2,1.424547099E-2,-1.884426735E-2,3.116059628E-2
8.175353208E0,-2.485184744E-2,-3.429667791E-3,-2.113888972E-2,3.280593850E-2
8.185374208E0,-2.931903303E-2,-1.228574384E-2,-2.352321707E-2,3.954601042E-2
8.195395208E0,-3.010585159E-2,-1.696805470E-2,-2.713074721E-2,4.393580117E-2
8.205415208E0,-3.357302025E-2,-1.773823984E-2,-2.745618485E-2,4.685760267E-2
8.215436208E0,-3.393861651E-2,-8.997565135E-3,-2.628912777E-2,4.386233131E-2
8.225457208E0,-3.422836587E-2,-1.027256250E-3,-1.952097006E-2,3.941705922E-2
8.235478208E0,-3.664553165E-2,1.153867878E-2,-1.699617505E-2,4.201078510E-2
8.245499208E0,-3.829615936E-2,2.093111537E-2,-1.653305069E-2,4.666957443E-2
8.255519208E0,-3.645563126E-2,2.368285693E-2,-1.365663856E-2,4.556747239E-2
8.265540208E0,-3.740877658E-2,2.464132942E-2,-1.230135653E-2,4.645357956E-2
8.275561208E0,-3.770002723E-2,2.293268777E-2,-9.552096017E-3,4.514911693E-2
8.285582208E0,-3.563607484E-2,2.430954203E-2,-5.850834306E-3,4.353292921E-2
8.295603208E0,-3.511594608E-2,2.389702201E-2,-2.906932961E-3,4.257519923E-2
8.305623208E0,-3.123545274E-2,2.585338056E-2,2.048410941E-3,4.059860566E-2
8.315644208E0,-2.641415410E-2,1.842137054E-2,3.523655701E-3,3.239553331E-2
8.325665208E0,-2.078556269E-2,1.499894261E-2,9.352516383E-3,2.728511423E-2
8.335686208E0,-1.528853178E-2,1.657571644E-3,1.262500789E-2,1.989667238E-2
8.345707208E0,-7.580811158E-3,-1.345933042E-2,1.081805304E-2,1.885875247E-2
8.355727208E0,-4.831226543E-4,-2.993504331E-2,1.324411668E-2,3.273754499E-2
8.365748208E0,2.905217465E-3,-4.547325894E-2,1.683885232E-2,4.857781916E-2
8.375769208E0,8.673004806E-3,-5.442087352E-2,2.323721536E-2,5.980652694E-2
8.385790208E0,1.111858524E-2,-5.946889520E-2,2.515229583E-2,6.551954227E-2
8.395811208E0,1.441050787E-2,-6.066732109E-2,2.854298986E-2,6.857761191E-2
8.405831208E0,1.612265408E-2,-6.220769137E-2,3.142958879E-2,7.153709452E-2
8.415852208E0,1.523651369E-2,-6.069586426E-2,3.466706723E-2,7.153981296E-2
8.425873208E0,1.524796523E-2,-6.459632516E-2,3.550809249E-2,7.527290549E-2
8.435894208E0,2.088049427E-2,-7.387863845E-2,4.074997827E-2,8.691725369E-2
8.445915208E0,1.950417086E-2,-9.225711972E-2,3.738028184E-2,1.014350743E-1
8.455935208E0,2.268293127E-2,-1.068347692E-1,3.745116666E-2,1.154589675E-1
8.465956208E0,2.333620563E-2,-1.157395840E-1,3.828180954E-2,1.241198080E-1
8.475977208E0,2.429238707E-2,-1.175711080E-1,3.266379237E-2,1.244186837E-1
8.485998208E0,2.607510611E-2,-1.000839919E-1,3.567582741E-2,1.094051244E-1
8.496019208E0,2.361464500E-2,-7.835071534E-2,3.878759593E-2,9.055917210E-2
8.506039208E0,1.711360365E-2,-5.238756165E-2,3.597582877E-2,6.581483344E-2
8.516060208E0,1.569463685E-2,-2.576049045E-2,3.766680509E-2,4.825673735E-2
8.526081208E0,7.710479666E-3,-1.341567189E-2,3.785162792E-2,4.089226681E-2
8.536102208E0,4.728526343E-3,-5.084777251E-3,3.493702039E-2,3.562034973E-2
8.546123208E0,1.965496689E-3,-1.858890289E-3,3.477110714E-2,3.487618875E-2
8.556143208E0,1.020014752E-3,-2.225365723E-3,3.011408448E-2,3.021342031E-2
8.566164208E0,-4.033866338E-3,-9.683814831E-3,2.720617875E-2,2.915860953E-2
8.576185208E0,-8.776375093E-3,-1.513848081E-2,2.878374234E-2,3.368534079E-2
8.586206208E0,-9.478385560E-3,-1.223989762E-2,2.615467086E-2,3.039279018E-2
8.596227208E0,-1.079079043E-2,-4.364396911E-3,2.498421073E-2,2.756265416E-2
8.606247208E0,-1.853556558E-2,1.352963410E-2,2.771648392E-2,3.598363060E-2
8.616268667E0,-2.475067042E-2,2.587787807E-2,2.681496553E-2,4.473592109E-2
8.626289667E0,-2.538396977E-2,2.385254391E-2,2.538458258E-2,4.310065898E-2
8.636310667E0,-2.539801039E-2,2.601292916E-2,2.409853600E-2,4.361732285E-2
8.646331667E0,-2.184934728E-2,1.544816978E-2,2.283007279E-2,3.517459523E-2
8.656351667E0,-1.534675714E-2,-8.344172966E-4,2.013531327E-2,2.533081221E-2
8.666372667E0,-1.242180821E-2,-1.738383248E-2,1.685456559E-2,2.721351378E-2
8.676393667E0,-4.343265668E-3,-3.387674317E-2,1.423174143E-2,3.700054254E-2
8.686414667E0,-3.259625286E-3,-4.179378971E-2,1.270761434E-2,4.380444587E-2
8.696435667E0,-7.368605584E-4,-3.467837349E-2,1.349227503E-2,3.721792628E-2
8.706455667E0,2.237890381E-3,-2.527927980E-2,1.285125129E-2,2.844652527E-2
8.716476667E0,2.976456657E-3,-1.248462684E-2,1.348880772E-2,1.861916043E-2
8.726497667E0,1.001838781E-2,-1.013518590E-2,1.508936752E-2,2.075521861E-2
8.736518667E0,1.222653408E-2,-2.277807146E-2,1.214951463E-2,2.856465265E-2
8.746539667E0,1.923837140E-2,-4.928744212E-2,1.097559370E-2,5.403545634E-2
8.756559667E0,2.769115940E-2,-7.856243104E-2,6.070969161E-3,8.352073123E-2
8.766580667E0,2.817905135E-2,-1.083211228E-1,5.034467205E-3,1.120395932E-1
8.776601667E0,3.285053745E-2,-1.254765093E-1,2.179265255E-3,1.297237889E-1
8.786622667E0,3.233601153E-2,-1.294105351E-1,3.617106006E-3,1.334383292E-1
8.796642667E0,2.570878342E-2,-1.224752665E-1,7.441205438E-3,1.253654816E-1
8.806663667E0,2.651279047E-2,-1.063351780E-1,7.219630294E-3,1.098281440E-1
8.816684667E0,2.289606631E-2,-8.185598999E-2,8.586330339E-3,8.543042794E-2
8.826705667E0,2.302869223E-2,-5.344938487E-2,1.391744614E-2,5.984022657E-2
8.836726667E0,1.625476778E-2,-3.202006221E-2,1.627293602E-2,3.942474231E-2
8.846746667E0,1.557299867E-2,-1.438914053E-2,1.728014462E-2,2.735267904E-2
8.856767667E0,8.583621122E-3,-1.043670531E-2,2.023975179E-2,2.433620598E-2
8.866788667E0,4.324960522E-3,-7.123200223E-3,1.849351823E-2,2.028436545E-2
8.876809667E0,7.998785004E-4,-2.136865631E-2,2.043628134E-2,2.957872331E-2
8.886830667E0,-1.804692671E-3,-3.407539800E-2,1.787085831E-2,3.851956959E-2
8.896850667E0,-3.899619915E-3,-5.532836914E-2,1.763262600E-2,5.820090177E-2
8.906871667E0,-1.008054987E-2,-7.218138129E-2,1.435933262E-2,7.428297061E-2
8.916892667E0,-1.287018508E-2,-8.430967480E-2,1.090503391E-2,8.598071117E-2
8.926913667E0,-1.335168630E-2,-8.689559996E-2,1.170904189E-2,8.869168215E-2
8.936934667E0,-1.359519642E-2,-7.881203294E-2,7.615259849E-3,8.033777495E-2
8.946954667E0,-6.839022972E-3,-9.602750838E-2,8.978798054E-3,9.668853818E-2
8.956975667E0,-1.819027588E-2,-9.573059529E-2,9.985256940E-3,9.795375627E-2
8.966996667E0,-1.877643913E-2,-7.961900532E-2,9.456885979E-3,8.234788016E-2
8.977017667E0,-1.879864931E-2,-6.526023895E-2,3.246957902E-3,6.799140195E-2
8.987038667E0,-1.555625070E-2,-6.519738585E-2,5.061103497E-3,6.721838161E-2
8.997058667E0,-1.254153997E-2,-6.987255812E-2,8.315145387E-4,7.099405622E-2
9.007079667E0,-9.339088574E-3,-6.572441757E-2,7.201944245E-4,6.638852551E-2
9.017100667E0,-2.603569999E-3,-5.214848742E-2,-2.965875436E-3,5.229760734E-2
9.027121667E0,-3.248853609E-3,-3.652904555E-2,-5.099066999E-3,3.702602737E-2
9.037142667E0,9.909733199E-4,-2.028826252E-2,-6.750499830E-3,2.140478619E-2
9.047162667E0,7.606265601E-3,9.475190891E-4,-1.187601965E-2,1.413481204E-2
9.057183667E0,1.105085853E-2,1.760295406E-2,-1.306543592E-2,2.454976745E-2
9.067204667E0,1.255341433E-2,2.082511224E-2,-1.875341684E-2,3.070772141E-2
9.077225667E0,1.495703403E-2,2.519487403E-2,-2.421299182E-2,3.801004495E-2
9.087246667E0,1.850889251E-2,2.983223647E-2,-2.652408183E-2,4.400077671E-2
9.097266667E0,2.179748937E-2,3.787465766E-2,-2.802503109E-2,5.191360711E-2
9.107287667E0,2.444067597E-2,4.186647013E-2,-3.262457624E-2,5.843381673E-2
9.117308667E0,2.983723208E-2,4.416394979E-2,-3.426001966E-2,6.335979661E-2
9.127329667E0,2.893974632E-2,5.056805164E-2,-3.415162861E-2,6.753495762E-2
9.137350667E0,3.201334924E-2,6.246707961E-2,-3.673338890E-2,7.922330733E-2
9.147370667E0,2.729263157E-2,7.563108206E-2,-3.737094998E-2,8.866530445E-2
9.157391667E0,2.668265626E-2,8.885347843E-2,-3.776825592E-2,1.001665909E-1
9.167412667E0,2.858441696E-2,9.568341821E-2,-3.167760745E-2,1.047657207E-1
9.177433667E0,2.365299687E-2,9.705359489E-2,-3.168550506E-2,1.047990256E-1
9.187454667E0,2.289532684E-2,8.754557371E-2,-3.209456801E-2,9.601294060E-2
9.197474667E0,2.031704970E-2,7.446303219E-2,-2.901302092E-2,8.245775314E-2
9.207495667E0,1.779317111E-2,6.134004146E-2,-2.465528995E-2,6.846225929E-2
9.217516667E0,1.187192276E-2,4.999525100E-2,-2.415159903E-2,5.677823006E-2
9.227537667E0,7.455070503E-3,4.356558248E-2,-2.414680459E-2,5.036473196E-2
9.237558667E0,3.577803262E-3,3.727803007E-2,-2.073638700E-2,4.280712496E-2
9.247578667E0,-4.481454380E-3,3.352802992E-2,-1.507929992E-2,3.703508485E-2
9.257599667E0,-1.269984152E-2,2.688695863E-2,-1.032485906E-2,3.147693177E-2
9.267620667E0,-1.838702336E-2,1.801996306E-2,-7.451307494E-3,2.680156115E-2
9.277641667E0,-2.598868683E-2,5.312770372E-4,-6.663593929E-3,2.683463401E-2
9.287661667E0,-2.918155119E-2,-8.567413315E-3,-1.353516942E-3,3.044331632E-2
9.297682667E0,-3.288594633E-2,-2.159823477E-2,1.358597656E-3,3.936768979E-2
9.307703667E0,-3.868258372E-2,-3.046230040E-2,-1.369810780E-3,4.925617130E-2
9.317724667E0,-4.095540196E-2,-3.656618670E-2,1.178512583E-3,5.491648069E-2
9.327745667E0,-4.529475421E-2,-3.581144661E-2,5.801002844E-4,5.774435889E-2
9.337765667E0,-4.697690904E-2,-2.483351342E-2,6.099215709E-3,5.348582807E-2
9.347786667E0,-5.254025012E-2,-6.721089594E-3,7.443046663E-3,5.348878267E-2
9.357807667E0,-5.492994189E-2,6.426654756E-3,1.047945302E-2,5.628871417E-2
9.367828667E0,-5.810362846E-2,6.531583145E-3,1.082060393E-2,5.946241407E-2
9.377849667E0,-6.008660793E-2,-3.841081634E-4,1.249524206E-2,6.137327648E-2
9.387869667E0,-6.198410690E-2,-1.523176394E-2,1.261668280E-2,6.506317565E-2
9.397890667E0,-6.505224854E-2,-3.054996394E-2,1.108247228E-2,7.271806191E-2
9.407911667E0,-7.297968119E-2,-4.136106744E-2,1.052214392E-2,8.454281330E-2
9.417932667E0,-8.096171916E-2,-4.115920514E-2,1.064993162E-2,9.144561870E-2
9.427953667E0,-9.429030865E-2,-2.735284343E-2,1.416503824E-2,9.919419670E-2
9.437973667E0,-9.928574413E-2,-9.241700172E-3,1.231617387E-2,1.004726637E-1
9.447994667E0,-1.072376817E-1,4.229100887E-3,1.259420812E-2,1.080574836E-1
9.458015667E0,-1.131885797E-1,9.651533328E-3,1.308849640E-2,1.143508435E-1
9.468036667E0,-1.200805679E-1,1.650810800E-2,8.847944438E-3,1.215324917E-1
9.478057667E0,-1.241402999E-1,2.705129609E-2,1.060163602E-2,1.274950248E-1
9.488077667E0,-1.224838123E-1,4.050106183E-2,7.020749617E-3,1.291971795E-1
9.498098667E0,-1.239810139E-1,5.248795450E-2,7.179028355E-3,1.348251298E-1
9.508119667E0,-1.195106357E-1,5.553035066E-2,7.841622457E-3,1.320147830E-1
9.518140667E0,-1.192700192E-1,5.601909384E-2,7.684709504E-3,1.319944360E-1
9.528161667E0,-1.162950099E-1,4.801496118E-2,8.073797449E-3,1.260759772E-1
9.538181667E0,-1.103620306E-1,3.934146836E-2,7.387832738E-3,1.173972274E-1
9.548202667E0,-1.017746627E-1,2.337341942E-2,9.674156085E-3,1.048712926E-1
9.558223667E0,-9.287821501E-2,-2.967439592E-2,8.419462480E-3,9.786633714E-2
9.568244667E0,-9.072850645E-2,-5.248170719E-2,1.205041632E-2,1.055045213E-1
9.578265667E0,-7.820438594E-2,-7.003829628E-2,1.180699561E-2,1.056441862E-1
9.588285667E0,-6.501615047E-2,-9.141255915E-2,9.010942653E-3,1.125368956E-1
9.598306667E0,-5.675159767E-2,-1.257257015E-1,6.163739134E-3,1.380785556E-1
9.608327667E0,-5.219626054E-2,-1.448354870E-1,8.071095683E-3,1.541652052E-1
9.618348542E0,-4.336412251E-2,-1.452266872E-1,9.429704398E-3,1.518557115E-1
9.628369542E0,-4.167541116E-2,-1.302024573E-1,1.085715927E-2,1.371400660E-1
9.638389542E0,-3.719053790E-2,-1.069797575E-1,1.229416765E-2,1.139252000E-1
9.648410542E0,-3.529649600E-2,-8.409628272E-2,1.183636952E-2,9.196807621E-2
9.658431542E0,-3.543971106E-2,-6.698704511E-2,1.155083068E-2,7.665937009E-2
9.668452542E0,-3.304047137E-2,-6.194648147E-2,9.855195880E-3,7.089544556E-2
9.678473542E0,-2.869787253E-2,-5.781004205E-2,7.950676605E-3,6.502908664E-2
9.688493542E0,-2.980335243E-2,-5.709232017E-2,5.790054332E-3,6.466295360E-2
9.698514542E0,-2.521529421E-2,-5.622973666E-2,1.081454800E-3,6.163411305E-2
9.708535542E0,-2.776367217E-2,-5.635490268E-2,-1.030165702E-3,6.283118486E-2
9.718556542E0,-2.569790557E-2,-5.139212310E-2,4.935213365E-4,5.746108449E-2
9.728577542E0,-2.750565857E-2,-3.470555320E-2,-5.203246605E-3,4.458823221E-2
9.738597542E0,-3.181974217E-2,-1.764269173E-2,-1.536426600E-3,3.641594665E-2
9.748618542E0,-4.107103124E-2,-2.530318452E-3,-3.130861325E-3,4.126783749E-2
9.758639542E0,-4.183613136E-2,1.892704703E-2,-1.809047768E-3,4.595397318E-2
9.768660542E0,-4.917659983E-2,3.503517807E-2,-3.788841888E-3,6.049923137E-2
9.778681542E0,-5.465042591E-2,5.061601475E-2,-3.982855938E-3,7.459566437E-2
9.788701542E0,-5.571009591E-2,5.854105204E-2,-2.295210492E-3,8.084514551E-2
9.798722542E0,-6.143956259E-2,6.481654942E-2,-2.483278513E-3,8.934299974E-2
9.808743542E0,-7.078646123E-2,6.801153719E-2,-3.712593578E-3,9.823479850E-2
9.818764542E0,-8.026637137E-2,6.504526734E-2,-3.346044570E-3,1.033671766E-1
9.828785542E0,-9.131076187E-2,6.797820330E-2,3.927580547E-3,1.139039826E-1
9.838805542E0,-9.575575590E-2,7.169760764E-2,7.533968310E-4,1.196255798E-1
9.848826542E0,-1.011553183E-1,7.161904126E-2,4.689815454E-3,1.240309633E-1
9.858847542E0,-1.096307784E-1,6.701126695E-2,4.847382195E-3,1.285803818E-1
9.868868542E0,-1.142614856E-1,5.579589307E-2,4.691587295E-3,1.272433879E-1
9.878889542E0,-1.264785975E-1,3.702002391E-2,4.925776739E-3,1.318771439E-1
9.888909542E0,-1.299028844E-1,2.688430063E-2,6.567349657E-3,1.328181278E-1
9.898930542E0,-1.363095939E-1,1.740863919E-2,8.410148323E-3,1.376738781E-1
9.908951542E0,-1.421528310E-1,1.005964633E-2,1.229703147E-2,1.430378999E-1
9.918972542E0,-1.447764486E-1,1.427645562E-3,1.208782289E-2,1.452872111E-1
9.928992542E0,-1.449138671E-1,-1.321707759E-2,1.491609961E-2,1.462778522E-1
9.939013542E0,-1.454089135E-1,-2.648945712E-2,1.476496179E-2,1.485376974E-1
9.949034542E0,-1.445857286E-1,-4.026146233E-2,1.518494170E-2,1.508529109E-1
9.959055542E0,-1.393816769E-1,-6.529892236E-2,1.538508199E-2,1.546864631E-1
9.969076542E0,-1.350236833E-1,-9.961002320E-2,1.402101107E-2,1.683749997E-1
9.979096542E0,-1.301421821E-1,-1.489126235E-1,1.163349487E-2,1.981093012E-1
9.989117542E0,-1.231055930E-1,-2.112843841E-1,6.638202816E-3,2.446224514E-1
9.999138542E0,-1.184298024E-1,-2.698071897E-1,7.048746571E-3,2.947392450E-1
1.000915954E1,-1.165767685E-1,-3.207292259E-1,4.385319538E-3,3.412866981E-1
1.001918054E1,-1.171587408E-1,-3.493444026E-1,4.176531918E-3,3.684903330E-1
1.002920054E1,-1.159435362E-1,-3.486458659E-1,9.061701712E-4,3.674202832E-1
1.003922154E1,-1.235690117E-1,-3.151206672E-1,-3.965561045E-4,3.384826330E-1
1.004924254E1,-1.382033527E-1,-2.498825490E-1,5.397417117E-3,2.856056497E-1
1.005926354E1,-1.556980163E-1,-1.727392226E-1,1.453400217E-2,2.330063272E-1
1.006928454E1,-1.724935174E-1,-8.935938776E-2,2.395892888E-2,1.957374364E-1
1.007930454E1,-1.862725914E-1,-2.407338656E-2,2.977630310E-2,1.901673854E-1
1.008932554E1,-1.913139522E-1,5.159607530E-2,3.237661347E-2,2.007770614E-1
1.009934654E1,-1.877082288E-1,1.567148119E-1,3.563130274E-2,2.471103016E-1
1.010936754E1,-1.720906496E-1,2.791781127E-1,3.659563139E-2,3.299921977E-1
1.011938854E1,-1.416776478E-1,3.452362418E-1,3.280422464E-2,3.746154504E-1
1.012940854E1,-1.065678671E-1,2.801009119E-1,4.038118571E-2,3.023968771E-1
1.013942954E1,-4.887402803E-2,1.336155534E-1,5.270306021E-2,1.517214529E-1
1.014945054E1,2.984634787E-2,-7.468571514E-2,6.575787812E-2,1.038886859E-1
1.015947154E1,1.149549410E-1,-2.925567627E-1,8.063858747E-2,3.245099068E-1
1.016949254E1,2.188001126E-1,-4.445076585E-1,9.460500628E-2,5.043913708E-1
1.017951254E1,3.249463141E-1,-5.045540333E-1,1.113294512E-1,6.103762170E-1
1.018953354E1,4.547011256E-1,-4.772095084E-1,1.237957105E-1,6.706768272E-1
1.019955454E1,6.166031957E-1,-4.360486269E-1,1.275281161E-1,7.658990314E-1
1.020957554E1,7.888545990E-1,-4.582727253E-1,1.246859878E-1,9.207888274E-1
1.021959654E1,9.750500917E-1,-4.999432862E-1,1.152338609E-1,1.101791638E0
1.022961654E1,1.165351868E0,-5.666597486E-1,1.002437249E-1,1.299691137E0
1.023963754E1,1.359047890E0,-6.216651797E-1,8.593633026E-2,1.496951507E0
1.024965854E1,1.541880250E0,-6.224129796E-1,7.112569362E-2,1.664287081E0
1.025967954E1,1.724175453E0,-5.445295572E-1,6.192469224E-2,1.809178847E0
1.026970054E1,1.924564958E0,-4.201272130E-1,3.221713006E-2,1.970151033E0
1.027972054E1,2.134744644E0,-3.166229725E-1,-9.756191634E-3,2.158119549E0
1.028974154E1,2.365760326E0,-2.825646102E-1,-6.247133762E-2,2.383394082E0
1.029976254E1,2.596982718E0,-3.301689029E-1,-1.298800260E-1,2.621106553E0
1.030978354E1,2.818059921E0,-4.384410381E-1,-1.915782690E-1,2.858390193E0
1.031980454E1,3.012963295E0,-5.671353340E-1,-2.408273518E-1,3.075319190E0
1.032982454E1,3.194358587E0,-6.426729560E-1,-2.993032038E-1,3.272084614E0
1.033984554E1,3.335994959E0,-6.477833986E-1,-3.516606092E-1,3.416452968E0
1.034986654E1,3.445827961E0,-5.534355640E-1,-4.065885842E-1,3.513592967E0
1.035988754E1,3.515077353E0,-3.795278966E-1,-4.525872171E-1,3.564357643E0
1.036990854E1,3.582601309E0,-1.860801429E-1,-5.014834404E-1,3.622311913E0
1.037992854E1,3.668828249E0,-3.324214369E-2,-5.587803721E-1,3.711285662E0
1.038994954E1,3.794359684E0,9.494778514E-2,-6.076976061E-1,3.843888249E0
1.039997054E1,3.993087769E0,2.526495457E-1,-6.562818885E-1,4.054539140E0
1.040999154E1,4.265460491E0,3.975582719E-1,-7.074513435E-1,4.341968814E0
1.042001254E1,4.599627018E0,5.566607714E-1,-7.398658991E-1,4.691891033E0
1.043003254E1,4.975113869E0,6.647443771E-1,-7.186375260E-1,5.070511117E0
1.044005354E1,5.373499393E0,4.994893968E-1,-7.269218564E-1,5.445401801E0
1.045007454E1,5.749507427E0,2.958456520E-3,-7.638452649E-1,5.800026207E0
1.046009554E1,6.129685879E0,-7.401151061E-1,-8.550158739E-1,6.233126943E0
1.047011654E1,6.542073250E0,-1.333049774E0,-9.310065508E-1,6.741106534E0
1.048013654E1,6.885764122E0,-1.634557009E0,-9.807981253E-1,7.144752558E0
1.049015754E1,7.192102432E0,-1.858608484E0,-1.057165384E0,7.503223410E0
1.050017854E1,7.390370369E0,-2.169446707E0,-1.245066524E0,7.802196092E0
1.051019954E1,7.526009560E0,-2.551204205E0,-1.421794415E0,8.072853408E0
1.052022054E1,7.719542980E0,-2.632166624E0,-1.685032487E0,8.328203854E0
1.053024054E1,7.609543800E0,-2.734957933E0,-1.916921139E0,8.310218914E0
1.054026154E1,7.533120632E0,-2.931960344E0,-2.105329275E0,8.353245434E0
1.055028254E1,7.439842224E0,-3.016272545E0,-2.301134825E0,8.351309710E0
1.056030354E1,7.344377041E0,-3.207741737E0,-2.503005266E0,8.396101270E0
1.057032454E1,7.246631622E0,-3.367491722E0,-2.715721369E0,8.439716401E0
1.058034454E1,7.143203259E0,-3.532424212E0,-2.932568073E0,8.491367917E0
1.059036554E1,7.016377449E0,-3.751996756E0,-3.161306381E0,8.561593905E0
1.060038654E1,6.873860359E0,-3.942384481E0,-3.393061876E0,8.620047595E0
1.061040754E1,6.730508327E0,-4.165188789E0,-3.634753942E0,8.709763270E0
1.062042867E1,6.566515446E0,-4.400502682E0,-3.885354996E0,8.807924409E0
1.063044867E1,6.375636101E0,-4.638458252E0,-4.135741234E0,8.903279519E0
1.064046967E1,6.163717747E0,-4.896997929E0,-4.390730858E0,9.013907179E0
1.065049067E1,5.935484886E0,-5.156229973E0,-4.655534267E0,9.137323880E0
1.066051167E1,5.675507545E0,-5.411215782E0,-4.917250156E0,9.255916553E0
1.067053167E1,5.386563301E0,-5.681371212E0,-5.176660538E0,9.385672984E0
1.068055267E1,5.072035789E0,-5.935658455E0,-5.434223652E0,9.512537781E0
1.069057367E1,4.728938103E0,-6.192157745E0,-5.685727596E0,9.645370466E0
1.070059467E1,4.355903149E0,-6.442415237E0,-5.917226315E0,9.772009701E0
1.071061567E1,3.953698635E0,-6.676314354E0,-6.142371655E0,9.896142470E0
1.072063567E1,3.523874998E0,-6.901152134E0,-6.351034641E0,1.001894390E1
1.073065667E1,3.066870451E0,-7.102879047E0,-6.531588554E0,1.012512885E1
1.074067767E1,2.585529327E0,-7.284943581E0,-6.690092087E0,1.022314516E1
1.075069867E1,2.083911896E0,-7.437301636E0,-6.822673321E0,1.030558177E1
1.076071967E1,1.565823555E0,-7.557310104E0,-6.921926022E0,1.036715001E1
1.077073967E1,1.034888625E0,-7.646711349E0,-6.982774258E0,1.040684031E1
1.078076067E1,4.975692332E-1,-7.701765537E0,-7.012198925E0,1.042764121E1
1.079078167E1,-4.299146309E-2,-7.718060493E0,-7.006633759E0,1.042416532E1
1.080080267E1,-5.825969577E-1,-7.697321415E0,-6.964684486E0,1.039687483E1
1.081082367E1,-1.111180305E0,-7.645544529E0,-6.885293484E0,1.034873611E1
1.082084367E1,-1.629236221E0,-7.553954124E0,-6.774986744E0,1.027701703E1
1.083086467E1,-2.128271580E0,-7.434830666E0,-6.634547234E0,1.018937996E1
1.084088567E1,-2.608990669E0,-7.286226273E0,-6.462174416E0,1.008244136E1
1.085090667E1,-3.067027092E0,-7.113451481E0,-6.272573948E0,9.967599063E0
1.086092767E1,-3.493666887E0,-6.917314529E0,-6.057073593E0,9.835806481E0
1.087094767E1,-3.892854929E0,-6.708389282E0,-5.827256680E0,9.701222947E0
1.088096867E1,-4.264823437E0,-6.480629921E0,-5.579973698E0,9.556327202E0
1.089098967E1,-4.607570648E0,-6.246654987E0,-5.329865456E0,9.415830902E0
1.090101067E1,-4.917610168E0,-6.004418850E0,-5.070816517E0,9.270874589E0
1.091103167E1,-5.201414108E0,-5.758443356E0,-4.805731773E0,9.127400313E0
1.092105167E1,-5.453167439E0,-5.515668392E0,-4.543487072E0,8.989043759E0
1.093107267E1,-5.678211212E0,-5.276664257E0,-4.281239510E0,8.855183792E0
1.094109367E1,-5.880408287E0,-5.039719105E0,-4.021522045E0,8.726431678E0
1.095111467E1,-6.060111046E0,-4.810720444E0,-3.766402721E0,8.605449816E0
1.096113567E1,-6.220925331E0,-4.594160080E0,-3.516755104E0,8.495515598E0
1.097115567E1,-6.355438709E0,-4.383517742E0,-3.273061991E0,8.385688032E0
1.098117667E1,-6.479235649E0,-4.186409950E0,-3.035098314E0,8.289652866E0
1.099119767E1,-6.582497120E0,-4.000448704E0,-2.806247711E0,8.198041497E0
1.100121867E1,-6.673072815E0,-3.821571112E0,-2.582116127E0,8.111820403E0
1.101123967E1,-6.752478123E0,-3.656258345E0,-2.375665188E0,8.037908370E0
1.102125967E1,-6.820061207E0,-3.502060652E0,-2.169288397E0,7.967651839E0
1.103128067E1,-6.874613762E0,-3.355016947E0,-1.972474933E0,7.899817115E0
1.104130167E1,-6.919426918E0,-3.218814850E0,-1.783433914E0,7.837083286E0
1.105132267E1,-6.961955547E0,-3.094905615E0,-1.601924896E0,7.785462683E0
1.106134367E1,-6.990261555E0,-2.978842974E0,-1.427354097E0,7.731403610E0
1.107136367E1,-7.018860817E0,-2.874589205E0,-1.258093119E0,7.688333276E0
1.108138467E1,-7.039052010E0,-2.779498577E0,-1.094915032E0,7.646744697E0
1.109140567E1,-7.051777363E0,-2.697539806E0,-9.381440878E-1,7.608179763E0
1.110142667E1,-7.064154148E0,-2.623272419E0,-7.813490033E-1,7.575905113E0
1.111144767E1,-7.070845127E0,-2.565246344E0,-6.319693923E-1,7.548292849E0
1.112146767E1,-7.073001385E0,-2.514447212E0,-4.880769849E-1,7.522500416E0
1.113148867E1,-7.070659637E0,-2.473653793E0,-3.490804732E-1,7.499003132E0
1.114150967E1,-7.067508221E0,-2.443143368E0,-2.083759755E-1,7.480778202E0
1.115153067E1,-7.061551094E0,-2.415830612E0,-6.717731059E-2,7.463662251E0
1.116155167E1,-7.049987793E0,-2.403855562E0,6.707423180E-2,7.448848797E0
1.117157167E1,-7.034211636E0,-2.402245760E0,2.039195597E-1,7.435892765E0
1.118159267E1,-7.015857220E0,-2.408486366E0,3.361794651E-1,7.425367044E0
1.119161367E1,-6.995619774E0,-2.424795151E0,4.735996425E-1,7.419071651E0
1.120163467E1,-6.967111111E0,-2.450021982E0,6.092902422E-1,7.410430456E0
1.121165567E1,-6.938220024E0,-2.485339642E0,7.489905953E-1,7.407887496E0
1.122167567E1,-6.900400162E0,-2.529853344E0,8.898218274E-1,7.403206280E0
1.123169667E1,-6.863689423E0,-2.584333658E0,1.031189442E0,7.406238223E0
1.124171767E1,-6.819653511E0,-2.649663925E0,1.169139147E0,7.409134853E0
1.125173867E1,-6.767301083E0,-2.716984510E0,1.317781687E0,7.410459996E0
1.126175867E1,-6.715751648E0,-2.790617704E0,1.469186544E0,7.419391921E0
1.127177967E1,-6.656937599E0,-2.875392675E0,1.622457862E0,7.430684407E0
1.128180067E1,-6.594756603E0,-2.968553066E0,1.777917981E0,7.447423334E0
1.129182167E1,-6.522320747E0,-3.066541672E0,1.938592076E0,7.463409743E0
1.130184267E1,-6.447685719E0,-3.171976328E0,2.104040384E0,7.487394132E0
1.131186267E1,-6.363000870E0,-3.287374496E0,2.270719290E0,7.513373227E0
1.132188367E1,-6.270801067E0,-3.409418821E0,2.438271523E0,7.542695191E0
1.133190467E1,-6.169898033E0,-3.533184767E0,2.618572712E0,7.576804035E0
1.134192567E1,-6.058936119E0,-3.670193911E0,2.795736551E0,7.615587509E0
1.135194667E1,-5.937308311E0,-3.805890322E0,2.979817867E0,7.656092061E0
1.136196667E1,-5.804045677E0,-3.951195240E0,3.163819313E0,7.701210469E0
1.137198767E1,-5.658568859E0,-4.106533527E0,3.350423098E0,7.752957763E0
1.138200867E1,-5.502848148E0,-4.265086174E0,3.544092417E0,7.812354887E0
1.139202967E1,-5.326400280E0,-4.429269314E0,3.735357046E0,7.870315042E0
1.140205067E1,-5.145322800E0,-4.600645542E0,3.928880930E0,7.942064686E0
1.141207067E1,-4.944488525E0,-4.771811008E0,4.124904156E0,8.014548108E0
1.142209167E1,-4.722918034E0,-4.937134743E0,4.315951824E0,8.081379484E0
1.143211267E1,-4.489357948E0,-5.102194309E0,4.501811504E0,8.151872691E0
1.144213367E1,-4.239850521E0,-5.265967846E0,4.687047958E0,8.226491862E0
1.145215467E1,-3.974704266E0,-5.425375462E0,4.863029003E0,8.299519503E0
1.146217467E1,-3.692680836E0,-5.576457024E0,5.034051895E0,8.371047914E0
1.147219567E1,-1.481199861E0,-5.110632420E0,4.094204903E0,6.713794050E0
1.148221667E1,1.210303688E1,-3.830744743E0,-8.682418823E0,1.537993835E1
1.149223767E1,1.793593645E0,-6.781545162E0,-1.636513901E1,1.780517081E1
1.150225867E1,1.425960255E1,-2.885053635E0,-1.343450832E1,1.980267187E1
1.151227867E1,4.176952362E0,1.759651780E0,-8.579759598E0,9.703379833E0
1.152229967E1,2.997630358E0,1.252872276E1,-5.522343159E0,1.401609631E1
1.153232067E1,5.689452648E0,1.668063354E1,-4.611860752E0,1.821764712E1
1.154234167E1,6.151314259E0,1.837741661E1,-3.605829477E0,1.971218188E1
1.155236267E1,6.221709251E0,1.884888649E1,-2.224791288E0,1.997347952E1
1.156238267E1,5.975131512E0,2.036386681E1,-1.063110948E0,2.124898757E1
1.157240367E1,6.123199463E0,2.045592690E1,-3.387528956E-1,2.135540377E1
1.158242467E1,4.611245632E0,2.198008919E1,7.352542281E-1,2.247061427E1
1.159244567E1,4.510736942E0,2.168223000E1,1.973778844E0,2.223424495E1
1.160246667E1,4.051777840E0,2.005367279E1,3.151921988E0,2.070027314E1
1.161248667E1,3.502429247E0,1.774860954E1,4.134334564E0,1.855728627E1
1.162250758E1,3.146682024E0,1.387701321E1,4.897409439E0,1.504851230E1
1.163252858E1,-4.824921608E0,-3.746327400E0,4.089141369E0,7.350912504E0
1.164254958E1,-1.251487494E0,1.143920040E1,-1.626648664E0,1.162185496E1
1.165257058E1,5.965020657E-1,-1.423174858E1,-1.297737002E0,1.430323753E1
1.166259058E1,2.462910652E0,7.389515638E-1,1.813623548E0,3.146618608E0
1.167261158E1,3.688960969E-1,-8.757438660E0,2.897884607E0,9.231822756E0
1.168263258E1,2.292188883E0,2.276167631E0,2.871290445E0,4.321964574E0
1.169265358E1,-2.248427719E-1,3.310508251E0,2.654020786E0,4.248981700E0
1.170267458E1,1.245649695E0,-5.535079479E0,2.280729055E0,6.114774978E0
1.171269458E1,-2.474585533E0,-1.727664948E0,2.665179729E0,4.026360978E0
1.172271558E1,9.474825263E-1,-3.579554081E0,1.528707623E0,4.005980224E0
1.173273658E1,5.049937963E-1,-3.081768751E0,7.247669101E-1,3.205870310E0
1.174275758E1,-7.040098310E-2,-8.902011871E0,6.954659224E-1,8.929414567E0
1.175277858E1,-3.180869520E-1,-5.893098831E0,7.056801915E-1,5.943717496E0
1.176279858E1,6.950585246E-1,-6.440431118E0,8.064504862E-1,6.527834382E0
1.177281958E1,-4.208467007E-1,-6.810113430E0,7.344457507E-1,6.862519030E0
1.178284058E1,-9.073540568E-2,-8.483054161E0,6.594831944E-1,8.509133851E0
1.179286158E1,-1.043456793E0,-9.049608231E0,6.926973462E-1,9.135865631E0
1.180288258E1,-1.134597659E0,-9.832045555E0,6.843904853E-1,9.920928484E0
1.181290258E1,-2.489981651E0,-8.682829857E0,6.085199714E-1,9.053277832E0
1.182292358E1,-3.027770042E0,-7.593495369E0,6.850100160E-1,8.203523759E0
1.183294458E1,-2.999679089E0,-6.919243336E0,8.098342419E-1,7.584842416E0
1.184296558E1,-3.231926680E0,-5.790194035E0,9.116145372E-1,6.693484749E0
1.185298658E1,-3.448623419E0,-5.118450165E0,1.087314129E0,6.266880212E0
1.186300658E1,-3.569210291E0,-4.201539993E0,1.184332609E0,5.638691705E0
1.187302758E1,-3.691000462E0,-3.348836899E0,1.300976396E0,5.150799216E0
1.188304858E1,-3.917540789E0,-2.388807297E0,1.395081997E0,4.795808577E0
1.189306958E1,-4.016847134E0,-1.599244475E0,1.476621866E0,4.568703965E0
1.190308958E1,-4.090126038E0,-8.141006231E-1,1.531844735E0,4.442796318E0
1.191311058E1,-4.235593796E0,2.076685056E-2,1.559569836E0,4.513639788E0
1.192313158E1,-4.332703590E0,8.298256397E-1,1.546396017E0,4.674641338E0
1.193315258E1,-4.452858925E0,1.635305285E0,1.526946664E0,4.983346476E0
1.194317358E1,-4.551079273E0,2.887195110E0,1.482430696E0,5.589795965E0
1.195319358E1,-4.203876495E0,4.128199100E0,1.243851185E0,6.021774753E0
1.196321458E1,-3.501351357E0,5.260890961E0,6.501647234E-1,6.352885108E0
1.197323558E1,4.640433311E0,5.437717438E0,-7.852785587E-1,7.191596114E0
1.198325658E1,4.090322971E0,9.389891624E0,-9.722688794E-1,1.028815404E1
1.199327758E1,3.867044449E0,5.259748936E0,-9.379000068E-1,6.595350488E0
1.200329758E1,3.320699692E0,7.654782772E0,-6.340602636E-1,8.368080912E0
1.201331858E1,2.663484097E0,1.502881527E1,-4.045097902E-2,1.526306235E1
1.202333958E1,-1.107030106E1,1.377885151E1,-1.467057347E0,1.773585554E1
1.203336058E1,-2.219769716E0,5.805476189E0,-4.812317789E-1,6.233980702E0
1.204338158E1,5.280721188E0,4.295359612E0,-4.996817708E-1,6.825380013E0
1.205340158E1,-4.822226524E0,3.442114830E0,-6.294301748E-1,5.958037051E0
1.206342258E1,1.289376259E0,4.140005112E0,-5.632221699E-1,4.372568201E0
1.207344358E1,-2.566288471E0,6.692684174E0,-7.388672233E-1,7.205815897E0
1.208346458E1,4.211353064E-1,1.337104797E0,-7.987937927E-1,1.613466984E0
1.209348558E1,-1.479613900E0,2.574561596E0,-4.074556231E-1,2.997272892E0
1.210350558E1,-6.885188222E-1,1.532294750E0,9.455680102E-2,1.682535693E0
1.211352658E1,5.686263442E-1,-8.171080947E-1,2.927297950E-1,1.037637842E0
1.212354758E1,-1.784296632E-1,4.014752209E-1,5.275768042E-1,6.865542819E-1
1.213356858E1,5.074773431E-1,-1.230647326E0,6.475095749E-1,1.480302247E0
1.214358958E1,4.708919302E-2,-1.259166241E0,5.687392354E-1,1.382454821E0
1.215360958E1,3.867431581E-1,-1.838791728E0,4.780692756E-1,1.938885123E0
1.216363058E1,5.078623295E-1,-2.587343454E0,4.372740090E-1,2.672728728E0
1.217365158E1,8.483335972E-1,-3.298134804E0,5.209989548E-1,3.445112914E0
1.218367258E1,9.951099753E-1,-3.842300415E0,6.257298589E-1,4.018090865E0
1.219369358E1,1.222445607E0,-4.605552197E0,6.754372716E-1,4.812660367E0
1.220371358E1,1.429764271E0,-5.488254547E0,6.452840567E-1,5.708025522E0
1.221373458E1,1.561709523E0,-6.369944572E0,5.772650838E-1,6.583947560E0
1.222375558E1,1.930471897E0,-7.808478832E0,4.936217368E-1,8.058704973E0
1.223377658E1,1.067124844E0,-1.287789536E1,4.298685789E-1,1.292918138E1
1.224379758E1,-3.356357574E0,-4.031462193E0,-1.072353348E-1,5.246839334E0
1.225381758E1,-3.868863583E0,3.117643356E0,-5.481682420E-1,4.998829257E0
1.226383858E1,2.400352478E0,-4.103645802E0,-3.428651392E-1,4.766461726E0
1.227385958E1,-2.530166507E-1,-2.338226795E0,-2.089214474E-1,2.361137468E0
1.228388058E1,6.475625038E-1,-3.560546875E0,-1.091333330E-1,3.620599582E0
1.229390158E1,-1.402365923E0,1.274344087E0,-1.276883781E-1,1.899180706E0
1.230392158E1,4.649063051E-1,2.733668566E0,-1.546930969E-1,2.777230933E0
1.231394258E1,1.911205769E0,3.869936705E0,-1.010181531E-1,4.317328138E0
1.232396358E1,2.237996012E-1,2.958603621E0,-2.582651377E-1,2.978275092E0
1.233398458E1,7.041459680E-1,9.367114902E-1,-3.303616941E-1,1.217533905E0
1.234400458E1,-1.349813640E-1,3.427503347E0,-3.607735336E-1,3.449080560E0
1.235402558E1,9.314695001E-1,1.440101266E0,-2.040060163E-1,1.727178491E0
1.236404658E1,-2.741510630E0,5.416118145E0,-3.583000898E-1,6.081002816E0
1.237406758E1,-3.138857782E-1,1.316077352E0,-8.994986862E-2,1.355977454E0
1.238408858E1,-9.556365609E-1,-1.570803821E-1,1.844004542E-1,9.858595288E-1
1.239410858E1,9.907094240E-1,-1.247161746E0,2.649203241E-1,1.614651777E0
1.240412958E1,7.267709970E-1,-9.359508753E-1,4.590749741E-1,1.270806813E0
1.241415058E1,7.133329511E-1,-2.053100109E0,4.234341681E-1,2.214353281E0
1.242417158E1,2.422021329E-1,-4.160778046E0,1.576147377E-1,4.170800669E0
1.243419258E1,-1.758372664E0,-3.002343774E-1,-2.337509096E-1,1.799070481E0
1.244421258E1,-7.052173018E-1,-5.380413532E-1,-2.499993145E-1,9.215853720E-1
1.245423358E1,8.555783033E-1,1.063200712E0,-1.457954198E-1,1.372467228E0
1.246425458E1,1.035350800E0,9.281963706E-1,1.871902496E-2,1.390629420E0
1.247427558E1,2.625716925E-1,1.894947290E0,4.114364088E-2,1.913494689E0
1.248429658E1,-9.521297812E-1,2.097588301E0,-5.808204785E-2,2.304300615E0
1.249431658E1,-5.749156475E-1,1.178979874E0,-7.673829049E-2,1.313929340E0
1.250433758E1,2.341215163E-1,-4.059104621E-1,4.475427791E-2,4.707219276E-1
1.251435858E1,6.156193614E-1,-1.893078446E0,2.438833565E-1,2.005545386E0
1.252437958E1,4.767065048E-1,-2.711918592E0,1.380807161E-1,2.756958075E0
1.253440058E1,-6.531121135E-1,-2.452289015E-1,-1.514293998E-1,7.138791985E-1
1.254442058E1,-1.847298890E-1,1.130434349E-1,-9.107226133E-2,2.349427736E-1
1.255444158E1,1.478802860E-1,7.797061801E-1,4.175689071E-2,7.947036833E-1
1.256446258E1,3.615085483E-1,1.201710701E0,6.972912699E-2,1.256844935E0
1.257448358E1,-2.029739916E-1,8.191034198E-1,-1.272137612E-1,8.534120896E-1
1.258450458E1,-1.104382277E-1,-2.437672168E-1,-9.118526243E-3,2.677726753E-1
1.259452458E1,1.554163545E-1,-1.039211035E0,1.690541357E-1,1.064280564E0
1.260454558E1,1.341035962E-1,-1.017378926E0,-9.554149583E-3,1.026223629E0
1.261456658E1,-1.394539028E-1,-1.355998963E-1,-7.148729265E-2,2.072321305E-1
1.262458767E1,-3.030128032E-2,2.846450806E-1,2.621094696E-2,2.874508710E-1
1.263460867E1,1.232070550E-1,8.134055734E-1,1.391220186E-2,8.228014065E-1
1.264462867E1,-6.379587203E-2,6.292890310E-1,-7.204323262E-2,6.366041354E-1
1.265464967E1,-1.192199737E-1,2.202703059E-2,-4.460190888E-3,1.213197655E-1
1.266467067E1,1.230698228E-1,-5.663595796E-1,8.555363864E-2,5.858573032E-1
1.267469167E1,1.028870568E-1,-7.934702039E-1,-2.780434862E-2,8.005958985E-1
1.268471267E1,-1.106316373E-1,-2.455309480E-1,-5.871172994E-3,2.693682912E-1
1.269473267E1,-2.802916616E-2,1.819181144E-1,2.019398287E-2,1.851691968E-1
1.270475367E1,8.830624819E-2,6.839649677E-1,-1.248482335E-2,6.897549865E-1
1.271477467E1,-4.416950792E-2,5.395902395E-1,-4.880740866E-2,5.435905952E-1
1.272479567E1,-9.735427797E-2,1.269827597E-2,1.014329214E-2,9.870150975E-2
1.273481667E1,9.605485946E-2,-4.771526754E-1,4.766004160E-2,4.890528512E-1
1.274483667E1,6.755869091E-2,-6.508001089E-1,-1.498553623E-2,6.544688875E-1
1.275485767E1,-8.433576673E-2,-2.373203784E-1,9.774510982E-4,2.518619443E-1
1.276487867E1,3.472222015E-4,2.390054315E-1,1.924908534E-2,2.397795741E-1
1.277489967E1,4.079877585E-2,6.757268310E-1,-3.366526216E-2,6.777939510E-1
1.278492067E1,-6.664475799E-2,4.253968298E-1,-3.064930812E-2,4.316750707E-1
1.279494067E1,-4.878879711E-2,-1.109283939E-1,2.556096576E-2,1.238499829E-1
1.280496167E1,9.351763129E-2,-4.859765172E-1,2.023068257E-2,4.953059692E-1
1.281498267E1,3.418666497E-2,-5.152164102E-1,-6.514911540E-3,5.163904738E-1
1.282500367E1,-5.572290719E-2,-1.716873646E-1,7.556533907E-3,1.806618243E-1
1.283502467E1,4.155091569E-2,3.148556352E-1,5.585262086E-3,3.176346089E-1
1.284504467E1,-8.934144862E-3,5.783298612E-1,-2.992470190E-2,5.791724571E-1
1.285506567E1,-6.736470014E-2,2.624464929E-1,-2.052054740E-2,2.717301186E-1
1.286508667E1,1.774244569E-2,-2.238562256E-1,3.022818826E-2,2.265836435E-1
1.287510767E1,7.063921541E-2,-4.588255882E-1,6.123213097E-5,4.642314325E-1
1.288512867E1,-1.682764292E-2,-3.236593008E-1,5.496796221E-3,3.241430661E-1
1.289514867E1,-2.125754580E-2,6.729532965E-3,1.427164674E-2,2.647356734E-2
1.290516967E1,2.266170830E-2,4.425374568E-1,-2.037022077E-2,4.435852788E-1
1.291519067E1,-8.021901362E-3,4.335828424E-1,-1.944503933E-2,4.340927800E-1
1.292521167E1,-6.036045030E-2,7.160281390E-2,4.359181039E-3,9.375153000E-2
1.293523267E1,5.500662327E-2,-3.086869717E-1,1.358303986E-2,3.138437096E-1
1.294525267E1,3.208091855E-2,-4.496259689E-1,1.265233732E-4,4.507690243E-1
1.295527367E1,-4.644771293E-2,-1.720881015E-1,1.029580366E-2,1.785432953E-1
1.296529467E1,2.504724637E-2,1.687980145E-1,4.711795133E-3,1.707112629E-1
1.297531567E1,-6.593504921E-3,4.507796466E-1,-2.175496705E-2,4.513524595E-1
1.298533667E1,-4.058171064E-2,2.706003189E-1,-1.853290573E-2,2.742533070E-1
1.299535667E1,3.924505785E-3,-6.612123549E-2,2.149546891E-2,6.963816994E-2
1.300537767E1,4.339966178E-2,-3.221170902E-1,-1.454091631E-3,3.250308675E-1
1.301539867E1,1.295386814E-2,-4.016755819E-1,1.264148764E-2,4.020831792E-1
1.302541967E1,-3.106381372E-2,-9.293899685E-2,6.991989794E-4,9.799544141E-2
1.303544067E1,3.308853880E-2,2.766049802E-1,-1.061950158E-2,2.787793757E-1
1.304546067E1,-1.076168288E-2,4.046155810E-1,-1.197871845E-2,4.049358862E-1
1.305548167E1,-3.949532658E-2,1.208043620E-1,-1.248578355E-2,1.277085333E-1
1.306550267E1,2.609483153E-2,-1.619152427E-1,1.298935246E-2,1.645181124E-1
1.307552367E1,3.018651158E-2,-3.693773448E-1,4.360710736E-3,3.706344077E-1
1.308554467E1,-3.095706925E-2,-1.925886422E-1,1.390324347E-2,1.955556837E-1
1.309556467E1,8.362373337E-3,1.064167023E-1,-1.329771243E-3,1.067530426E-1
1.310558567E1,-9.697951376E-3,3.878478110E-1,-1.530905068E-2,3.882709644E-1
1.311560667E1,-3.195984662E-2,2.367176712E-1,-1.401981525E-2,2.392764987E-1
1.312562767E1,2.766042948E-3,-6.181410328E-2,1.223596837E-2,6.307418869E-2
1.313564867E1,2.821733989E-2,-2.772824764E-1,3.303993493E-3,2.787341141E-1
1.314566867E1,1.757444069E-2,-3.159225881E-1,9.978814982E-3,3.165683487E-1
1.315568967E1,-1.848449185E-2,-9.998355061E-3,-2.361740218E-3,2.114760885E-2
1.316571067E1,1.091554202E-2,3.262247741E-1,-1.099391002E-2,3.265924346E-1
1.317573167E1,-1.572645456E-2,2.598926425E-1,-1.124584489E-2,2.606107750E-1
1.318575267E1,-1.943919994E-2,6.412556395E-4,9.604238905E-3,2.169182122E-2
1.319577267E1,3.459021449E-2,-2.313275337E-1,5.646248814E-3,2.339674997E-1
1.320579367E1,7.631465793E-3,-3.158037066E-1,8.830667473E-3,3.160193049E-1
1.321581467E1,-1.615428925E-2,-3.883151710E-2,-2.505077049E-3,4.213221086E-2
1.322583567E1,1.595820487E-2,2.677944899E-1,-6.877859589E-3,2.683577054E-1
1.323585567E1,-1.299781352E-2,2.491039038E-1,-1.064463519E-2,2.496697945E-1
1.324587667E1,-1.742914692E-2,2.174527757E-2,4.457490984E-3,2.822235789E-2
1.325589767E1,2.638251707E-2,-1.931803524E-1,3.132568207E-3,1.949987148E-1
1.326591867E1,6.043814123E-3,-3.010405600E-1,7.362476550E-3,3.011912225E-1
1.327593967E1,-1.214957144E-2,-4.336933419E-2,-1.841674326E-3,4.507663473E-2
1.328595967E1,1.569990441E-2,2.412123233E-1,-6.974917371E-3,2.418233268E-1
1.329598067E1,-1.389953401E-2,2.199009061E-1,-1.645790227E-2,2.209535428E-1
1.330600167E1,-1.045017224E-2,2.812217362E-2,5.999601446E-3,3.059506441E-2
1.331602267E1,1.974954084E-2,-1.718737781E-1,3.440303728E-3,1.730389426E-1
1.332604367E1,9.595997632E-3,-2.818031609E-1,8.831960149E-3,2.821047823E-1
1.333606367E1,-1.117905509E-2,-3.572523594E-2,-2.712569549E-4,3.743444050E-2
1.334608467E1,6.830964237E-3,2.310953289E-1,-2.802910050E-3,2.312132553E-1
1.335610567E1,-1.693774760E-2,1.956862062E-1,-1.043792628E-2,1.966950149E-1
1.336612667E1,-4.750674590E-3,2.413959801E-2,5.369602237E-3,2.518177375E-2
1.337614767E1,1.416043192E-2,-1.537702084E-1,2.320815809E-3,1.544382757E-1
1.338616767E1,8.848240599E-3,-2.621572912E-1,8.272647858E-3,2.624369894E-1
1.339618867E1,-9.198669344E-3,-2.872882411E-2,-2.458292991E-3,3.026555892E-2
1.340620967E1,1.013802178E-2,2.202932537E-1,-3.881176235E-3,2.205605600E-1
1.341623067E1,-1.826379076E-2,1.722178608E-1,-7.532370277E-3,1.733473226E-1
1.342625167E1,2.973721828E-3,1.737523824E-2,6.217583548E-3,1.869225162E-2
1.343627167E1,8.268618956E-3,-1.473143846E-1,9.511827375E-4,1.475493230E-1
1.344629267E1,6.873388775E-3,-2.396648228E-1,7.373662200E-3,2.398767218E-1
1.345631367E1,-8.473076858E-3,-1.214616932E-2,2.395861084E-4,1.481147738E-2
1.346633467E1,5.897690542E-3,2.094464451E-1,-7.277679630E-3,2.096558150E-1
1.347635567E1,-1.708672196E-2,1.495120078E-1,-4.998813383E-3,1.505682061E-1
1.348637567E1,2.808712889E-3,5.054433830E-3,1.574754482E-3,5.992997673E-3
1.349639667E1,5.594112910E-3,-1.503269076E-1,5.729818251E-3,1.505400414E-1
1.350641767E1,9.833480231E-3,-2.015800178E-1,8.728369139E-3,2.020083794E-1
1.351643867E1,-1.806397922E-3,1.726631075E-2,1.300546108E-3,1.740919242E-2
1.352645967E1,-4.270747304E-4,2.042210400E-1,-1.190900430E-2,2.045684237E-1
1.353647967E1,-1.590962708E-2,1.174411401E-1,-1.624142868E-3,1.185249993E-1
1.354650067E1,5.904195365E-3,-2.633487806E-2,2.784111130E-4,2.699005072E-2
1.355652167E1,6.705007982E-3,-1.694957614E-1,9.091343731E-3,1.698717834E-1
1.356654267E1,5.284155719E-3,-1.287093163E-1,3.106311662E-3,1.288551883E-1
1.357656367E1,1.251331065E-3,6.764155626E-2,2.345979214E-3,6.769379278E-2
1.358658367E1,-1.300815027E-2,1.919049770E-1,-8.908018470E-3,1.925515125E-1
1.359660467E1,-1.455038693E-2,6.726583838E-2,1.273245900E-3,6.883333443E-2
1.360662567E1,1.103457808E-2,-6.915725768E-2,-6.855960237E-4,7.003540708E-2
1.361664708E1,1.177333854E-2,-1.809333265E-1,8.760103956E-3,1.815274623E-1
1.362666808E1,-9.095107205E-3,-5.879752710E-2,2.439928241E-3,5.954681703E-2
1.363668808E1,6.124591455E-3,1.208619848E-1,-6.559964968E-4,1.210188428E-1
1.364670908E1,-1.140564773E-2,1.355822384E-1,-6.610361394E-3,1.362216174E-1
1.365673008E1,-3.484874032E-3,6.115059368E-3,1.383915776E-3,7.173110969E-3
1.366675108E1,6.140117999E-3,-1.127688512E-1,3.660494229E-3,1.129951949E-1
1.367677208E1,5.904960912E-3,-1.372843087E-1,9.541286156E-3,1.377421000E-1
1.368679208E1,1.505929045E-3,2.967563830E-2,1.171682961E-3,2.973691598E-2
1.369681308E1,-1.322721038E-2,1.638917625E-1,-7.652701810E-3,1.646026511E-1
1.370683408E1,-1.016865205E-2,6.283488870E-2,1.199074322E-3,6.366366704E-2
1.371685508E1,7.728056516E-3,-6.052779406E-2,5.157071864E-4,6.102132960E-2
1.372687608E1,7.529505063E-3,-1.577108651E-1,8.947818540E-3,1.581438392E-1
1.373689608E1,-4.736482166E-3,-2.882238477E-2,3.460750740E-4,2.921102352E-2
1.374691708E1,9.972420521E-4,1.149897203E-1,-3.619164927E-3,1.150509827E-1
1.375693808E1,-6.843370385E-3,9.489644319E-2,-5.225849804E-3,9.528628524E-2
1.376695908E1,-1.619568095E-3,-1.939470693E-2,1.645681914E-3,1.953166472E-2
1.377698008E1,7.654091809E-3,-1.284809858E-1,4.195924848E-3,1.287771510E-1
1.378700008E1,-8.540749550E-4,-5.485705286E-2,1.489748247E-3,5.488392335E-2
1.379702108E1,6.674948148E-3,7.543224841E-2,8.934665238E-4,7.573227394E-2
1.380704208E1,-1.124792639E-2,9.963848442E-2,-8.880597539E-3,1.006638388E-1
1.381706308E1,-8.299071342E-4,-7.441626862E-3,1.212250441E-3,7.585255917E-3
1.382708408E1,8.706594817E-3,-1.061764657E-1,4.038885701E-3,1.066093770E-1
1.383710408E1,3.191721160E-3,-5.229325965E-2,5.118531175E-3,5.264001757E-2
1.384712508E1,3.862280864E-3,6.701090932E-2,-1.506859204E-3,6.713903340E-2
1.385714608E1,-1.137393061E-2,8.989092708E-2,-5.435287952E-3,9.077052067E-2
1.386716708E1,-1.472863369E-3,-1.576296799E-2,2.409079112E-3,1.601387363E-2
1.387718808E1,4.507797770E-3,-1.018845364E-1,2.690308960E-3,1.020196881E-1
1.388720808E1,3.595836461E-3,-2.459644526E-2,3.642306896E-3,2.512332699E-2
1.389722908E1,2.778778784E-3,8.452071995E-2,-2.215049462E-3,8.459539087E-2
1.390725008E1,-1.259761769E-2,4.791883379E-2,-6.119698286E-3,4.992359473E-2
1.391727108E1,3.911584616E-3,-4.768119007E-2,2.618932165E-3,4.791299601E-2
1.392729208E1,6.696455181E-3,-8.201557398E-2,5.517890677E-3,8.247329267E-2
1.393731208E1,3.251922783E-3,4.416766390E-2,-2.524856012E-3,4.435913022E-2
1.394733308E1,-6.411337294E-3,5.553441495E-2,-2.955775475E-3,5.598136385E-2
1.395735408E1,-6.012395956E-3,-2.555164509E-2,2.946126042E-4,2.625113842E-2
1.396737508E1,3.595570102E-3,-5.883084983E-2,7.149603334E-4,5.894495894E-2
1.397739608E1,6.154335104E-3,3.032246232E-2,6.920571905E-4,3.094844915E-2
1.398741608E1,-6.796596572E-4,3.758711740E-2,-3.769017290E-3,3.778172605E-2
1.399743708E1,-4.632057622E-3,-3.248278052E-2,-3.220879007E-4,3.281296586E-2
1.400745808E1,7.881252095E-4,-2.824947983E-2,9.782982524E-4,2.827739945E-2
1.401747908E1,3.375919070E-3,4.292269796E-2,-2.402584534E-3,4.312223605E-2
1.402750008E1,-1.314440742E-3,1.211748458E-4,2.838516142E-3,3.130433149E-3
1.403752008E1,-5.466574803E-3,-3.843341023E-2,-2.356512006E-3,3.889169077E-2
1.404754108E1,-3.420420922E-3,1.381943002E-2,-6.066407659E-4,1.424934870E-2
1.405756208E1,4.112596624E-3,2.537062392E-2,1.076190383E-4,2.570201531E-2
1.406758308E1,1.414222177E-3,-2.623720095E-2,1.693047117E-3,2.632977680E-2
1.407760408E1,-2.096889541E-3,-1.438240428E-2,-1.774654840E-3,1.464240070E-2
1.408762408E1,-3.252839670E-4,3.475774080E-2,-5.430380814E-3,3.518089525E-2
1.409764508E1,1.503509004E-3,-3.940121271E-3,1.968147000E-3,4.653890584E-3
1.410766608E1,-1.463536173E-4,-3.058373183E-2,2.569357865E-3,3.069181767E-2
1.411768708E1,5.492637865E-4,1.625754312E-2,-3.814313095E-5,1.626686367E-2
1.412770808E1,-8.210511878E-4,1.953675412E-2,-4.869613796E-3,2.015122887E-2
1.413772808E1,-1.577922143E-3,-2.229777910E-2,5.781482905E-4,2.236101622E-2
1.414774908E1,-2.512503415E-4,-3.508267691E-3,2.374680480E-4,3.525260274E-3
1.415777008E1,1.634533517E-3,2.168337069E-2,-3.822520841E-3,2.207831357E-2
1.416779108E1,-1.159504056E-3,-8.850241080E-3,2.046540845E-3,9.157485805E-3
1.417781208E1,-3.366732039E-3,-1.114748232E-2,-2.966593485E-3,1.201673515E-2
1.418783208E1,4.871282727E-4,1.447558776E-2,1.491804374E-3,1.456040573E-2
1.419785308E1,-9.237509221E-5,2.861809218E-3,2.006859751E-3,3.496565632E-3
1.420787408E1,-3.600921482E-4,-1.645987667E-2,1.927440404E-3,1.657625509E-2
1.421789508E1,-3.275187686E-3,8.110715076E-3,8.981287247E-4,8.793019313E-3
1.422791608E1,2.481201198E-3,1.243780553E-2,-1.270533539E-4,1.268351325E-2
1.423793608E1,5.863620900E-4,-1.466199011E-2,1.207190333E-3,1.472328370E-2
1.424795708E1,1.501501538E-3,-2.701278077E-3,1.473607961E-3,3.423876537E-3
1.425797808E1,1.306086779E-5,1.499090064E-2,-1.869191648E-3,1.510699011E-2
1.426799908E1,-8.957562968E-4,-8.978033438E-3,2.116664080E-3,9.267563358E-3
1.427802008E1,2.928809728E-3,-7.392653730E-3,1.360711758E-4,7.952846720E-3
1.428804008E1,2.119076438E-3,1.163264830E-2,-2.201864030E-3,1.202735202E-2
1.429806108E1,-2.445581369E-3,-1.041068463E-3,7.167662261E-5,2.658915064E-3
1.430808208E1,-1.298567280E-3,-8.222177625E-3,7.642593700E-4,8.359101283E-3
1.431810308E1,2.233849373E-3,9.313406423E-3,-9.079394513E-4,9.620497714E-3
1.432812408E1,-4.629138857E-5,2.320127562E-3,-1.416590298E-3,2.718798055E-3
1.433814408E1,1.995021477E-3,-1.093469188E-2,-1.085026655E-3,1.116802937E-2
1.434816508E1,-3.008265048E-5,3.330890555E-3,-9.837518446E-4,3.473255612E-3
1.435818608E1,9.355796501E-4,6.445191335E-3,-4.913333687E-4,6.531248664E-3
1.436820708E1,-1.920866780E-3,-8.174847811E-3,-1.486011897E-4,8.398806358E-3
1.437822808E1,7.890118286E-5,-2.350781113E-3,6.828377373E-4,2.449217143E-3
1.438824808E1,1.280648168E-3,6.857417524E-3,-2.940518316E-4,6.982170243E-3
1.439826908E1,2.476140857E-3,-3.249811707E-3,-8.969915216E-4,4.182958697E-3
1.440829008E1,-6.789863110E-4,-3.032530891E-3,1.711778750E-4,3.112325156E-3
1.441831108E1,-9.919069707E-4,5.282657221E-3,-1.774793956E-3,5.660409909E-3
1.442833208E1,-1.786791719E-3,-1.347254030E-3,-2.334042452E-3,3.233492267E-3
1.443835208E1,2.546969801E-3,-3.183503868E-3,-1.176366350E-3,4.243299404E-3
1.444837308E1,-2.721147612E-4,6.558020134E-3,-4.122211249E-4,6.576594922E-3
1.445839408E1,1.219788101E-3,1.337159425E-3,1.960921567E-3,2.668537377E-3
1.446841508E1,1.008416060E-3,-6.801959593E-3,1.045656274E-3,6.955354362E-3
1.447843608E1,-1.546620391E-3,4.025654402E-3,-1.762020402E-4,4.316129650E-3
1.448845608E1,3.568422981E-4,2.094638068E-3,6.519284798E-4,2.222578639E-3
1.449847708E1,1.508126501E-3,-2.773620421E-3,1.225040760E-3,3.386464328E-3
1.450849808E1,4.122322425E-4,5.986295873E-4,-4.015297745E-4,8.303727864E-4
1.451851908E1,6.870701909E-4,2.822461538E-4,-2.613551449E-3,2.717053462E-3
1.452854008E1,1.296256203E-3,-3.799797036E-3,-2.652395051E-4,4.023566782E-3
1.453856008E1,1.823562197E-3,2.668497618E-4,1.723178721E-4,1.851021700E-3
1.454858108E1,7.186587900E-4,1.045949059E-3,8.686633082E-4,1.537873803E-3
1.455860208E1,1.480056439E-3,-2.623354318E-3,1.722206478E-3,3.469661380E-3
1.456862308E1,-1.525906846E-3,1.414355822E-3,-4.634793848E-3,5.080364958E-3
1.457864308E1,-4.002216458E-2,-5.096336454E-2,1.471626759E-2,6.645003172E-2
1.458866408E1,-8.896349929E-3,-8.902680129E-3,-4.601482302E-2,4.770499652E-2
1.459868508E1,1.005923096E-2,-1.215653028E-2,1.040317956E-2,1.889961643E-2
1.460870608E1,1.472037658E-2,2.438713238E-2,-5.176806357E-3,2.895204719E-2
1.461872658E1,1.439653710E-2,1.150828321E-4,-7.600548677E-3,1.628010641E-2
1.462874758E1,-7.320425659E-2,4.539703578E-2,1.656677723E-1,1.867232305E-1
1.463876758E1,-9.193959832E-2,-5.247759819E-2,1.459121853E-1,1.802696699E-1
1.464878858E1,-1.533263326E-1,-9.185699373E-2,-3.763393685E-2,1.826553716E-1
1.465880958E1,-1.765046269E-1,-7.656645030E-2,-1.127955969E-2,1.927265760E-1
1.466883058E1,-8.813746274E-2,-2.966567315E-2,1.106367409E-1,1.445294190E-1
1.467885058E1,1.117098778E-1,6.115264446E-2,3.795853853E-1,4.003795793E-1
1.468887158E1,2.831507623E-1,-1.809580326E-1,4.855638444E-1,5.905018296E-1
1.469889258E1,7.074514031E-1,9.602908790E-2,2.697503269E-1,7.632000474E-1
1.470891358E1,8.283011317E-1,3.632256091E-1,2.289671153E-1,9.329745697E-1
1.471893458E1,6.674017310E-1,3.422470987E-1,1.935641170E-1,7.746129450E-1
1.472895458E1,6.553261280E-1,2.144467831E-1,2.375364155E-1,7.292895896E-1
1.473897558E1,6.633209586E-1,3.326495886E-1,3.472831845E-1,8.193021745E-1
1.474899658E1,6.036534309E-1,2.420153320E-1,4.098442197E-1,7.687269801E-1
1.475901758E1,8.300597072E-1,2.719772458E-1,3.118718565E-1,9.274884336E-1
1.476903858E1,1.019021034E0,2.227089852E-1,2.872955799E-1,1.081915852E0
1.477905858E1,1.072867513E0,1.085243598E-1,3.064122796E-1,1.121031098E0
1.478907958E1,1.043606520E0,6.603020430E-2,2.345802486E-1,1.071682065E0
1.479910058E1,1.159352899E0,1.591172665E-1,-6.982357800E-2,1.172302342E0
1.480912158E1,1.125878334E0,-5.841724575E-2,-1.687059402E-1,1.139945741E0
1.481914258E1,9.686834216E-1,-4.299487174E-1,-7.944903523E-2,1.062786724E0
1.482916258E1,9.304224849E-1,-6.358267069E-1,-3.808526322E-2,1.127569106E0
1.483918358E1,1.147585154E0,-8.843837976E-1,1.177523565E-2,1.448870264E0
1.484920458E1,1.192399621E0,-1.005801678E0,7.084069401E-2,1.561560846E0
1.485922558E1,1.230766177E0,-1.750872135E0,7.950688899E-2,2.141648889E0
1.486924658E1,1.325775504E0,-2.568679333E0,-1.596284658E-2,2.890683140E0
1.487926658E1,1.157960415E0,-2.949621916E0,8.844611794E-2,3.170010171E0
1.488928758E1,1.102627635E0,-3.216389418E0,2.269695699E-1,3.407706527E0
1.489930858E1,1.070054054E0,-3.069872618E0,3.193455637E-1,3.266667286E0
1.490932958E1,1.002262950E0,-2.684898138E0,3.691754639E-1,2.889550061E0
1.491935058E1,8.920201659E-1,-2.177535295E0,4.294089675E-1,2.392018395E0
1.492937058E1,7.731122375E-1,-1.696066856E0,5.081130266E-1,1.931974162E0
1.493939158E1,6.870325208E-1,-1.232494116E0,6.095299125E-1,1.537069336E0
1.494941258E1,5.942739248E-1,-8.144007921E-1,6.856996417E-1,1.219259672E0
1.495943358E1,4.663926959E-1,-5.599054098E-1,7.789973617E-1,1.066701975E0
1.496945458E1,3.378853202E-1,-4.588048458E-1,8.548015952E-1,1.027304309E0
1.497947458E1,2.205770612E-1,-6.173928976E-1,8.922640085E-1,1.107232266E0
1.498949558E1,9.430134296E-2,-9.762247205E-1,9.333048463E-1,1.353870520E0
1.499951658E1,-4.454868287E-2,-1.552030325E0,9.757947922E-1,1.833837013E0
1.500953758E1,-1.503637731E-1,-2.293713331E0,1.043780923E0,2.524521484E0
1.501955858E1,-2.259288430E-1,-2.878218174E0,1.110291243E0,3.093207129E0
1.502957858E1,-3.009266555E-1,-3.206443787E0,1.144642234E0,3.417900591E0
1.503959958E1,-3.772845566E-1,-3.321616650E0,1.142639995E0,3.532861016E0
1.504962058E1,-4.477942586E-1,-3.355832577E0,1.145861864E0,3.574231581E0
1.505964158E1,-5.220290422E-1,-3.341976166E0,1.129047751E0,3.565959596E0
1.506966258E1,-5.809195042E-1,-3.355170965E0,1.081311345E0,3.572656421E0
1.507968258E1,-6.310282350E-1,-3.396669149E0,9.959676266E-1,3.595484593E0
1.508970358E1,-6.894183159E-1,-3.380595684E0,9.288000464E-1,3.573009141E0
1.509972458E1,-7.274509072E-1,-3.268479824E0,8.541899920E-1,3.455688893E0
1.510974558E1,-7.534595132E-1,-3.254377365E0,7.581283450E-1,3.425409736E0
1.511976658E1,-8.209749460E-1,-3.371898174E0,7.907909751E-1,3.559360550E0
1.512978658E1,-8.168972731E-1,-3.392376184E0,1.010196447E0,3.632634608E0
1.513980758E1,-7.891016006E-1,-3.691466808E0,1.236085296E0,3.972092067E0
1.514982858E1,-8.479095101E-1,-3.874290466E0,1.168729067E0,4.134610597E0
1.515984958E1,-8.491593599E-1,-4.113596916E0,1.164859414E0,4.358858642E0
1.516987058E1,-8.535244465E-1,-4.474149704E0,1.232229471E0,4.718570655E0
1.517989058E1,-8.521800637E-1,-4.817931652E0,1.278181553E0,5.056918464E0
1.518991158E1,-8.311756849E-1,-5.144042015E0,1.357715607E0,5.384738893E0
1.519993258E1,-7.939249873E-1,-5.395168781E0,1.478081226E0,5.650034263E0
1.520995358E1,-7.465224266E-1,-5.619390965E0,1.572113991E0,5.882719860E0
1.521997458E1,-7.007797360E-1,-5.914865494E0,1.653440595E0,6.181471657E0
1.522999458E1,-6.103519201E-1,-6.312113285E0,1.707705140E0,6.567462252E0
1.524001558E1,-4.421946108E-1,-6.818971157E0,1.725078344E0,7.047680399E0
1.525003658E1,-3.047660291E-1,-7.110278606E0,1.768173337E0,7.333169925E0
1.526005758E1,-1.572745740E-1,-7.295395851E0,1.821802497E0,7.521070419E0
1.527007858E1,-1.254072972E-2,-7.336122990E0,1.859189391E0,7.568054108E0
1.528009858E1,1.262469739E-1,-7.323760509E0,1.893902898E0,7.565730268E0
1.529011958E1,2.928896248E-1,-7.215752602E0,1.882015824E0,7.462898465E0
1.530014058E1,4.504859149E-1,-7.092049599E0,1.846786976E0,7.342392471E0
1.531016158E1,5.914734602E-1,-6.947052479E0,1.755715370E0,7.189848083E0
1.532018258E1,7.338870168E-1,-6.797282696E0,1.708160162E0,7.046946384E0
1.533020258E1,8.687563539E-1,-6.643781185E0,1.666867018E0,6.904564555E0
1.534022358E1,9.577962160E-1,-6.525743484E0,1.607057214E0,6.788618011E0
1.535024458E1,1.069903374E0,-6.437033653E0,1.581014395E0,6.714141941E0
1.536026558E1,1.168890953E0,-6.298858166E0,1.563183784E0,6.594350900E0
1.537028658E1,1.231765628E0,-6.218515873E0,1.514310241E0,6.517692976E0
1.538030658E1,1.274303794E0,-6.081408978E0,1.411771297E0,6.371850870E0
1.539032758E1,1.277672410E0,-5.949347973E0,1.332707405E0,6.229229255E0
1.540034858E1,1.353250742E0,-5.882565022E0,1.301446438E0,6.174918755E0
1.541036958E1,1.441181183E0,-5.799936295E0,1.286999106E0,6.113315870E0
1.542039058E1,1.547269583E0,-5.737721443E0,1.221611857E0,6.066945364E0
1.543041058E1,1.645687580E0,-5.690237522E0,1.124168396E0,6.029166215E0
1.544043158E1,1.729024529E0,-5.627536774E0,9.905204177E-1,5.969910105E0
1.545045258E1,1.784780025E0,-5.562717915E0,8.294768929E-1,5.900618803E0
1.546047358E1,1.658372283E0,-5.395043850E0,6.006764770E-1,5.676046952E0
1.547049458E1,1.453987002E0,-5.311422825E0,3.289127052E-1,5.516654257E0
1.548051458E1,1.219833374E0,-5.198964119E0,8.470590413E-2,5.340823575E0
1.549053558E1,9.512231350E-1,-5.036897659E0,-9.582152963E-2,5.126826040E0
1.550055658E1,6.946422458E-1,-4.776698112E0,-2.103718221E-1,4.831524502E0
1.551057758E1,3.054043949E-1,-4.401474476E0,-3.223503232E-1,4.423817259E0
1.552059858E1,-8.625206351E-2,-4.171239853E0,-3.790783286E-1,4.189317571E0
1.553061858E1,-5.654627830E-2,-3.364471197E0,-3.568269908E-1,3.383812852E0
1.554063958E1,5.913370755E-3,-2.531211376E0,-2.520225346E-1,2.543733743E0
1.555066058E1,-2.550485134E-1,-1.875732780E0,1.687220931E-1,1.900497395E0
1.556068158E1,-2.434490770E-1,-2.754658759E-1,2.297436446E-1,4.335101430E-1
1.557070258E1,-2.897492349E-1,7.835081816E-1,3.031693101E-1,8.886795375E-1
1.558072258E1,-2.266104817E-1,1.939021230E0,3.586615920E-1,1.984891377E0
1.559074358E1,-2.475041747E-1,2.571065664E0,3.859497309E-1,2.611626727E0
1.560076458E1,-2.329164594E-1,2.805277824E0,4.051918685E-1,2.843943424E0
1.561078558E1,-2.147678733E-1,2.605527639E0,4.155846238E-1,2.647189094E0
1.562080733E1,-1.749426872E-1,2.125131845E0,4.189399481E-1,2.173085591E0
1.563082733E1,-1.417788267E-1,1.570806861E0,4.227758944E-1,1.632873200E0
1.564084833E1,-1.295139045E-1,1.038265467E0,4.348392189E-1,1.133072891E0
1.565086933E1,-1.301203370E-1,6.057938337E-1,4.588244855E-1,7.709976522E-1
1.566089033E1,-1.351715624E-1,2.365897149E-1,4.873115420E-1,5.583176367E-1
1.567091133E1,-1.452927440E-1,-9.752466530E-2,5.219910741E-1,5.505413002E-1
1.568093133E1,-1.690582633E-1,-3.484218419E-1,5.549013615E-1,6.766786514E-1
1.569095233E1,-1.793449372E-1,-4.114556909E-1,5.951219201E-1,7.454062596E-1
1.570097333E1,-2.028185725E-1,-3.226893246E-1,6.396294832E-1,7.445734681E-1
1.571099433E1,-2.260928303E-1,-1.427193135E-1,6.802093387E-1,7.308703816E-1
1.572101533E1,-2.638199627E-1,7.438369840E-2,7.141411901E-1,7.649389169E-1
1.573103533E1,-3.059851825E-1,2.469547093E-1,7.442857623E-1,8.417688853E-1
1.574105633E1,-3.485784531E-1,3.162634671E-1,7.663420439E-1,8.993384495E-1
1.575107733E1,-3.787374198E-1,2.718555331E-1,7.805758715E-1,9.092008333E-1
1.576109833E1,-4.024978876E-1,1.353972852E-1,7.929399014E-1,8.994946701E-1
1.577111933E1,-4.107258022E-1,-6.494038552E-2,7.935504913E-1,8.958991687E-1
1.578113933E1,-4.055028260E-1,-2.739918530E-1,7.791622281E-1,9.201075237E-1
1.579116033E1,-3.925212622E-1,-3.859131038E-1,7.618610859E-1,9.399117933E-1
1.580118133E1,-3.580857813E-1,-3.693977594E-1,7.397043705E-1,9.010231336E-1
1.581120233E1,-3.209733665E-1,-2.493415773E-1,7.153287530E-1,8.227334617E-1
1.582122333E1,-2.846955359E-1,-6.788150221E-2,6.877224445E-1,7.474099325E-1
1.583124333E1,-2.520993054E-1,1.569464952E-1,6.571705341E-1,7.211514217E-1
1.584126433E1,-2.248458713E-1,3.897637725E-1,6.261340976E-1,7.710482296E-1
1.585128533E1,-2.050622404E-1,5.913522840E-1,5.975037813E-1,8.653085085E-1
1.586130633E1,-1.906284392E-1,7.590249181E-1,5.704079866E-1,9.684127732E-1
1.587132733E1,-1.732532829E-1,8.825675249E-1,5.437461734E-1,1.051000493E0
1.588134733E1,-1.527996808E-1,9.573421478E-1,5.231887102E-1,1.101625234E0
1.589136833E1,-1.282624304E-1,9.962204695E-1,5.184785724E-1,1.130365651E0
1.590138933E1,-1.017607898E-1,1.000413656E0,5.272353292E-1,1.135411747E0
1.591141033E1,-7.443214208E-2,9.712498188E-1,5.420292616E-1,1.114747539E0
1.592143133E1,-4.285451397E-2,9.507471919E-1,5.671029091E-1,1.107863909E0
1.593145133E1,-1.089388411E-2,9.480819106E-1,5.971802473E-1,1.120536583E0
1.594147233E1,2.011649683E-2,9.594464302E-1,6.342970133E-1,1.150336832E0
1.595149333E1,5.967155099E-2,9.640815854E-1,6.658191681E-1,1.173170560E0
1.596151433E1,9.977635741E-2,9.654446244E-1,7.004035115E-1,1.196914251E0
1.597153533E1,1.407078505E-1,9.559457302E-1,7.385859489E-1,1.216199055E0
1.598155533E1,1.737986803E-1,9.147418141E-1,7.700138688E-1,1.208254909E0
1.599157633E1,2.050000727E-1,8.531264067E-1,7.968646288E-1,1.185260702E0
1.600159733E1,2.273498476E-1,7.896075845E-1,8.272457123E-1,1.165977512E0
1.601161833E1,2.491704673E-1,7.569431067E-1,8.494384289E-1,1.164729339E0
1.602163933E1,2.597559988E-1,7.659398317E-1,8.780346513E-1,1.193767923E0
