"Time (s)","Gyroscope x (rad/s)","Gyroscope y (rad/s)","Gyroscope z (rad/s)","Absolute (rad/s)"
6.394458331E-3,-1.361911744E-1,2.411512472E-2,-1.801915616E-1,2.271531952E-1
1.641445833E-2,-1.343524158E-1,1.744828187E-2,-1.812447757E-1,2.262845175E-1
2.643445833E-2,-1.092015281E-1,-7.275174372E-3,-1.578012258E-1,1.920393938E-1
3.645445834E-2,-6.720302999E-2,-4.348285869E-2,-1.376035661E-1,1.591909157E-1
4.647345833E-2,-2.936616726E-2,-6.982365251E-2,-1.215769351E-1,1.432433781E-1
5.649345833E-2,8.654827252E-4,-9.942995757E-2,-9.640330076E-2,1.384942667E-1
6.651345833E-2,2.177316137E-2,-1.159367561E-1,-7.119622082E-2,1.377835398E-1
7.653345833E-2,1.404317655E-2,-1.283800155E-1,-5.278853327E-2,1.395179860E-1
8.655245834E-2,-4.916932434E-3,-1.639167070E-1,-5.009927228E-2,1.714724472E-1
9.657245833E-2,-3.449178487E-2,-1.955789030E-1,-5.435791984E-2,2.059018552E-1
1.065924583E-1,-6.769207865E-2,-1.862280071E-1,-7.584323734E-2,2.121680579E-1
1.166124583E-1,-9.784164280E-2,-1.482573003E-1,-9.547391534E-2,2.016642821E-1
1.266314583E-1,-1.285353750E-1,-8.760381490E-2,-1.103284955E-1,1.907043469E-1
1.366514583E-1,-1.538395882E-1,-1.089481264E-2,-1.272415817E-1,1.999393306E-1
1.466714583E-1,-1.871110052E-1,6.030666456E-2,-1.403613687E-1,2.415548299E-1
1.566914583E-1,-2.161789984E-1,9.819274396E-2,-1.552287042E-1,2.836743290E-1
1.667104583E-1,-2.349228561E-1,1.113333106E-1,-1.695985943E-1,3.103989974E-1
1.767304583E-1,-2.449669242E-1,1.372402161E-1,-1.751506329E-1,3.309401986E-1
1.867504583E-1,-1.268746257E-1,5.152371526E-2,-1.236674637E-1,1.845142418E-1
1.967704583E-1,7.673672400E-3,5.173527822E-2,-3.182716668E-2,6.122411942E-2
2.067894583E-1,1.255691499E-1,5.155631527E-2,7.241454720E-2,1.538490549E-1
2.168094583E-1,2.078161091E-1,-2.221843600E-2,1.395992935E-1,2.513347505E-1
2.268294583E-1,2.574409246E-1,-1.286236942E-1,1.722618937E-1,3.354013185E-1
2.368484583E-1,2.848077416E-1,-2.392673343E-1,1.968030781E-1,4.208274688E-1
2.468684583E-1,3.061085045E-1,-3.312944770E-1,2.321136594E-1,5.072821679E-1
2.568884583E-1,3.210234046E-1,-3.892280757E-1,2.513822913E-1,5.636910303E-1
2.669084583E-1,3.279438913E-1,-3.995869756E-1,2.532459497E-1,5.756304873E-1
2.769274583E-1,3.361873627E-1,-3.838493824E-1,2.472167164E-1,5.669906490E-1
2.869474583E-1,3.299694061E-1,-3.253282905E-1,2.359006703E-1,5.199686835E-1
2.969674583E-1,3.257160783E-1,-2.794056237E-1,2.283242047E-1,4.860971185E-1
3.069874583E-1,3.198075891E-1,-2.542888224E-1,2.270192504E-1,4.674157028E-1
3.170074583E-1,3.139647841E-1,-2.321584672E-1,2.385622859E-1,4.575843133E-1
3.270264583E-1,2.938842773E-1,-2.229306251E-1,2.557218075E-1,4.488425948E-1
3.370464583E-1,2.672450244E-1,-2.459664792E-1,2.700116634E-1,4.525767453E-1
3.470664583E-1,2.202287763E-1,-2.941651642E-1,2.830662131E-1,4.638537903E-1
3.570854583E-1,1.636039466E-1,-3.677479029E-1,2.898919284E-1,4.960263114E-1
3.671054583E-1,9.887181222E-2,-4.629396498E-1,2.886543572E-1,5.544457526E-1
3.771254583E-1,3.297957033E-2,-5.617265105E-1,2.803599238E-1,6.286700339E-1
3.871454583E-1,-2.895463631E-2,-6.338174939E-1,2.630685568E-1,6.868537342E-1
3.971644583E-1,-7.755786180E-2,-6.766110063E-1,2.540295124E-1,7.268759653E-1
4.071844583E-1,-1.160700992E-1,-6.817343831E-1,2.568881512E-1,7.377164491E-1
4.172044583E-1,-1.427355260E-1,-6.807365417E-1,2.702479064E-1,7.461967573E-1
4.272244583E-1,-1.521814913E-1,-6.989533305E-1,2.881869674E-1,7.711982188E-1
4.372434583E-1,-1.450194120E-1,-7.303716540E-1,3.065728843E-1,8.052703374E-1
4.472634583E-1,-1.265645027E-1,-7.483986020E-1,3.276342452E-1,8.267183556E-1
4.572834583E-1,-1.105805114E-1,-7.140647769E-1,3.419630527E-1,7.994093348E-1
4.673034583E-1,-9.313946962E-2,-6.515960693E-1,3.402602077E-1,7.409651863E-1
4.773224583E-1,-9.538752586E-2,-5.786234736E-1,3.196550608E-1,6.678946490E-1
4.873424583E-1,-1.002523229E-1,-5.282250047E-1,2.939619422E-1,6.127689673E-1
4.973624583E-1,-1.230752170E-1,-5.274707675E-1,2.700152993E-1,6.052116832E-1
5.073824583E-1,-1.579929888E-1,-5.902159214E-1,2.661207020E-1,6.664359282E-1
5.174014583E-1,-2.030085772E-1,-6.549891829E-1,2.849253118E-1,7.425669973E-1
5.274214583E-1,-2.478325069E-1,-7.012951970E-1,3.127087355E-1,8.068597512E-1
5.374414583E-1,-2.885142267E-1,-7.422623038E-1,3.524875045E-1,8.708853125E-1
5.474614583E-1,-3.190702498E-1,-7.677570581E-1,4.003908336E-1,9.228052580E-1
5.574804583E-1,-3.318209648E-1,-7.404934168E-1,4.478953481E-1,9.268472883E-1
5.675004583E-1,-3.231095076E-1,-6.715382934E-1,4.821475744E-1,8.875977224E-1
5.775204583E-1,-2.901910841E-1,-5.855549574E-1,5.133351088E-1,8.310225071E-1
5.875404583E-1,-2.369611412E-1,-4.942314029E-1,5.449454784E-1,7.729041574E-1
5.975594583E-1,-1.871994138E-1,-4.015177786E-1,5.676059127E-1,7.200254295E-1
6.075794583E-1,-1.412689388E-1,-3.369880617E-1,5.722758174E-1,6.789826787E-1
6.175994583E-1,-1.120019555E-1,-3.081201613E-1,5.621458888E-1,6.507614556E-1
6.276194583E-1,-9.814180434E-2,-2.780463994E-1,5.532488227E-1,6.269177568E-1
6.376384583E-1,-9.871836752E-2,-2.539552748E-1,5.364426374E-1,6.016720876E-1
6.476584583E-1,-1.121928990E-1,-2.360593677E-1,5.083510876E-1,5.716048459E-1
6.576784583E-1,-1.248955876E-1,-2.478938103E-1,4.822562635E-1,5.564362970E-1
6.676984583E-1,-1.453204304E-1,-2.364539355E-1,4.758393764E-1,5.508644146E-1
6.777174583E-1,-1.648451239E-1,-1.958792508E-1,4.672091007E-1,5.327541080E-1
6.877374583E-1,-1.714018285E-1,-1.561608613E-1,4.610635936E-1,5.160856894E-1
6.977574583E-1,-1.710707098E-1,-1.009775251E-1,4.689164162E-1,5.092585333E-1
7.077774583E-1,-1.671593189E-1,-3.860576078E-2,4.821174443E-1,5.117322276E-1
7.177964583E-1,-1.652876884E-1,-8.323661052E-3,4.966977537E-1,5.235436579E-1
7.278164583E-1,-1.857916415E-1,1.226976514E-2,5.100790262E-1,5.430006392E-1
7.378364583E-1,-2.226167917E-1,1.761475764E-2,5.236350298E-1,5.692645783E-1
7.478564583E-1,-2.651120722E-1,-1.449213596E-3,5.348884463E-1,5.969858969E-1
7.578754583E-1,-3.091491759E-1,-3.701218963E-2,5.387768745E-1,6.222729591E-1
7.678954583E-1,-3.497821093E-1,-5.352964625E-2,5.446994901E-1,6.495463659E-1
7.779154583E-1,-3.884151280E-1,-3.701367229E-2,5.596417785E-1,6.822281464E-1
7.879354583E-1,-4.119231105E-1,2.359833568E-3,5.663846135E-1,7.003411656E-1
7.979544583E-1,-4.185087383E-1,3.172779083E-2,5.833671093E-1,7.186608386E-1
8.079744583E-1,-4.020208418E-1,6.577710062E-2,6.134911776E-1,7.364229825E-1
8.179944583E-1,-3.860657215E-1,1.262806207E-1,6.464273334E-1,7.634538845E-1
8.280144583E-1,-3.582212925E-1,1.121080667E-1,6.673006415E-1,7.656244897E-1
8.380335833E-1,-3.271516860E-1,2.699222043E-2,6.741412878E-1,7.498154983E-1
8.480535833E-1,-2.801974714E-1,-8.049322665E-2,6.818963885E-1,7.416012859E-1
8.580735833E-1,-2.178639174E-1,-1.749778688E-1,6.885894537E-1,7.431267569E-1
8.680935833E-1,-1.415451765E-1,-2.623599172E-1,6.965243816E-1,7.576371013E-1
8.781125833E-1,-7.042236626E-2,-3.406812549E-1,6.892468333E-1,7.720649094E-1
8.881325833E-1,-8.400808088E-3,-4.086549878E-1,6.782596707E-1,7.919000275E-1
8.981525833E-1,4.816035926E-2,-4.705076218E-1,6.708282828E-1,8.207968247E-1
9.081725833E-1,1.029873863E-1,-5.128169656E-1,6.645096540E-1,8.456717580E-1
9.181915833E-1,1.524690092E-1,-5.209545493E-1,6.653621197E-1,8.586892287E-1
9.282115833E-1,1.975512654E-1,-4.935407639E-1,6.731369495E-1,8.577425843E-1
9.382315833E-1,2.374016047E-1,-4.477484226E-1,6.846535802E-1,8.518149428E-1
9.482515833E-1,2.672074437E-1,-3.869963884E-1,7.111344337E-1,8.525715252E-1
9.582705833E-1,2.608675361E-1,-2.983262241E-1,7.564445734E-1,8.539665099E-1
9.682905833E-1,2.306925952E-1,-2.350689620E-1,8.137310147E-1,8.778579923E-1
9.783105833E-1,1.739183217E-1,-2.375928909E-1,8.649961948E-1,9.137375890E-1
9.883305833E-1,1.011788622E-1,-2.954136133E-1,9.087093472E-1,9.608636963E-1
9.983495833E-1,2.850783616E-2,-3.595612943E-1,9.469884038E-1,1.013352879E0
1.008369583E0,-4.591127113E-2,-3.798002303E-1,9.845557809E-1,1.056269921E0
1.018389583E0,-1.113250852E-1,-3.567002118E-1,1.015310049E0,1.081888539E0
1.028409583E0,-1.539748162E-1,-3.332404196E-1,1.047030926E0,1.109518445E0
1.038428583E0,-1.831505597E-1,-3.165484667E-1,1.063097358E0,1.124243324E0
1.048448583E0,-2.078473866E-1,-2.805134952E-1,1.084713221E0,1.139513549E0
1.058468583E0,-2.122090310E-1,-2.522433698E-1,1.107052922E0,1.155086821E0
1.068488583E0,-2.025028765E-1,-2.170971036E-1,1.130134225E0,1.168478469E0
1.078507583E0,-1.890871078E-1,-1.685181260E-1,1.149961352E0,1.177524269E0
1.088527583E0,-1.450807601E-1,-1.279379427E-1,1.158694148E0,1.174729191E0
1.098547583E0,-9.036616981E-2,-1.121156812E-1,1.158917189E0,1.167829192E0
1.108567583E0,-2.903357148E-2,-1.261430830E-1,1.151783586E0,1.159034276E0
1.118586583E0,2.642035671E-2,-1.588209718E-1,1.137334704E0,1.148674178E0
1.128606583E0,8.572708815E-2,-2.251627147E-1,1.138005018E0,1.163229471E0
1.138626583E0,1.453397721E-1,-2.903537750E-1,1.154053926E0,1.198861722E0
1.148646583E0,2.030752450E-1,-3.276265860E-1,1.178791285E0,1.240212735E0
1.158665583E0,2.691297233E-1,-3.494612277E-1,1.215040922E0,1.292624617E0
1.168685583E0,3.301315606E-1,-3.397864997E-1,1.252441287E0,1.339048502E0
1.178705583E0,4.041739404E-1,-3.350763023E-1,1.282799482E0,1.386076194E0
1.188724583E0,4.740326703E-1,-3.296501040E-1,1.297317982E0,1.420003560E0
1.198744583E0,5.277987719E-1,-3.269774318E-1,1.311337948E0,1.450893862E0
1.208764583E0,5.569190979E-1,-3.468752503E-1,1.337985039E0,1.490196391E0
1.218784583E0,5.636305213E-1,-3.807438910E-1,1.373991251E0,1.533133143E0
1.228803583E0,5.513139367E-1,-4.244604707E-1,1.405713201E0,1.568484412E0
1.238823583E0,5.438613892E-1,-4.813420773E-1,1.442626715E0,1.615130720E0
1.248843583E0,5.308585167E-1,-4.822651148E-1,1.478383422E0,1.643170091E0
1.258863583E0,5.123102665E-1,-4.335079491E-1,1.512241006E0,1.654467833E0
1.268882583E0,4.930881560E-1,-3.781490624E-1,1.536322117E0,1.657232117E0
1.278902583E0,4.599330425E-1,-3.180346489E-1,1.558224201E0,1.655520191E0
1.288922583E0,4.216551483E-1,-2.329075038E-1,1.577593923E0,1.649497364E0
1.298942583E0,3.812433481E-1,-1.411442310E-1,1.584946156E0,1.636252578E0
1.308961583E0,3.263760805E-1,-5.034081265E-2,1.581759095E0,1.615864282E0
1.318981583E0,2.556968033E-1,6.025881041E-3,1.558504343E0,1.579352068E0
1.329001583E0,1.721542478E-1,5.405892059E-2,1.514302611E0,1.525015361E0
1.339021583E0,9.030319750E-2,7.966722548E-2,1.463756442E0,1.468701623E0
1.349040583E0,3.270621598E-2,9.850696474E-2,1.422816157E0,1.426597048E0
1.359060583E0,-1.718210056E-3,1.316640675E-1,1.378459215E0,1.384733977E0
1.369080583E0,-3.953400999E-3,1.559246778E-1,1.326727390E0,1.335864403E0
1.379100583E0,2.107498795E-2,1.635887176E-1,1.280073524E0,1.290656286E0
1.389119583E0,6.801639497E-2,1.231171861E-1,1.234340429E0,1.242328607E0
1.399139583E0,1.100828871E-1,9.359231591E-2,1.197730422E0,1.206414492E0
1.409159583E0,1.452763081E-1,8.988706023E-2,1.184222937E0,1.196481865E0
1.419179583E0,1.539308429E-1,1.084687710E-1,1.199676752E0,1.214365879E0
1.429198583E0,1.423183978E-1,1.522636563E-1,1.223240137E0,1.240868720E0
1.439218583E0,1.179307997E-1,2.041623145E-1,1.241536140E0,1.263725410E0
1.449238583E0,9.171783924E-2,2.454562187E-1,1.248679876E0,1.275877091E0
1.459258583E0,5.047485232E-2,3.050292730E-1,1.264355898E0,1.301609160E0
1.469277583E0,-1.589751057E-2,4.022077620E-1,1.299398303E0,1.360316053E0
1.479297583E0,-1.276430786E-1,5.116232038E-1,1.347660303E0,1.447148697E0
1.489317583E0,-2.694673240E-1,5.855178833E-1,1.409704208E0,1.550067671E0
1.499337583E0,-4.035753608E-1,5.653043985E-1,1.476716757E0,1.631911307E0
1.509356583E0,-5.326947570E-1,5.259476304E-1,1.526749611E0,1.700396715E0
1.519376583E0,-6.559605002E-1,5.359529853E-1,1.528139472E0,1.747209211E0
1.529396583E0,-7.508339882E-1,5.807055235E-1,1.473066807E0,1.752397329E0
1.539416583E0,-7.966317534E-1,6.479874849E-1,1.391519070E0,1.729403149E0
1.549435583E0,-7.826935649E-1,7.603605986E-1,1.294554472E0,1.693112146E0
1.559455583E0,-7.301317453E-1,8.754463196E-1,1.232034206E0,1.678513303E0
1.569475583E0,-6.672470570E-1,9.462358356E-1,1.236021280E0,1.693614329E0
1.579495583E0,-6.444010735E-1,9.338327050E-1,1.283756375E0,1.713279515E0
1.589514583E0,-6.796264648E-1,7.980442643E-1,1.354016185E0,1.712345353E0
1.599534583E0,-7.444698811E-1,5.663629174E-1,1.419214725E0,1.699756687E0
1.609554583E0,-8.036684990E-1,2.972329557E-1,1.456200480E0,1.689600641E0
1.619574583E0,-8.334314823E-1,6.158467755E-2,1.459038496E0,1.681426193E0
1.629593583E0,-8.224648237E-1,-9.730084985E-2,1.430382609E0,1.652849131E0
1.639613583E0,-7.621027231E-1,-2.095465660E-1,1.359228611E0,1.572327174E0
1.649633583E0,-6.602981091E-1,-3.003704846E-1,1.295346022E0,1.484633738E0
1.659653583E0,-5.253789425E-1,-3.436689973E-1,1.277336001E0,1.423277441E0
1.669672583E0,-3.654257357E-1,-3.337417841E-1,1.279222608E0,1.371615845E0
1.679692583E0,-2.068632096E-1,-2.918891311E-1,1.279486775E0,1.328562404E0
1.689712583E0,-9.019437432E-2,-2.412171662E-1,1.266136885E0,1.292061669E0
1.699732583E0,-2.537153289E-2,-2.141129971E-1,1.252364159E0,1.270788761E0
1.709751583E0,4.020710476E-3,-1.904255152E-1,1.232108712E0,1.246743727E0
1.719771583E0,2.206490375E-3,-1.178877056E-1,1.186842680E0,1.192685175E0
1.729791583E0,-2.167087793E-2,-4.446408525E-2,1.120847702E0,1.121938614E0
1.739811583E0,-5.455275998E-2,-1.108427253E-2,1.056048989E0,1.057515169E0
1.749830583E0,-9.943074733E-2,-6.368347444E-3,1.008234024E0,1.013145042E0
1.759850583E0,-1.234664842E-1,2.134182304E-2,9.644188881E-1,9.725241580E-1
1.769870583E0,-1.319686174E-1,7.456109673E-2,9.173141718E-1,9.297528504E-1
1.779890583E0,-1.408984065E-1,1.432296634E-1,8.683945537E-1,8.913339432E-1
1.789909583E0,-1.572422236E-1,2.164500803E-1,8.156477213E-1,8.584037275E-1
1.799929583E0,-1.775182486E-1,2.551081777E-1,7.518450022E-1,8.135501326E-1
1.809949583E0,-1.766308844E-1,2.592621744E-1,6.950637698E-1,7.625804800E-1
1.819969583E0,-1.587463766E-1,2.603616416E-1,6.611046195E-1,7.280438960E-1
1.829988458E0,-1.528314948E-1,2.834286094E-1,6.488676667E-1,7.243745518E-1
1.840008458E0,-1.575657725E-1,2.680833936E-1,6.576882005E-1,7.274953248E-1
1.850028458E0,-1.778465360E-1,1.866455376E-1,6.490712762E-1,6.983977868E-1
1.860048458E0,-1.994736344E-1,5.902997777E-2,6.065697074E-1,6.412496230E-1
1.870067458E0,-1.998997480E-1,-7.352460176E-2,5.574300885E-1,5.967361895E-1
1.880087458E0,-1.478965431E-1,-1.487932950E-1,5.098838210E-1,5.513568201E-1
1.890107458E0,-5.929716676E-2,-1.412432343E-1,4.568917453E-1,4.818878211E-1
1.900127458E0,5.494730547E-2,-9.877251834E-2,4.127476513E-1,4.279437351E-1
1.910146458E0,1.745005995E-1,-7.523923367E-2,3.738452494E-1,4.193705665E-1
1.920166458E0,2.767708898E-1,-8.970423788E-2,3.443667591E-1,4.508186337E-1
1.930186458E0,3.376086950E-1,-1.453248858E-1,3.186214566E-1,4.864345650E-1
1.940206458E0,3.610052168E-1,-2.123289704E-1,3.168999553E-1,5.251989527E-1
1.950225458E0,2.751289010E-1,-4.025799036E-1,2.682842016E-1,5.565455092E-1
1.960245458E0,1.813271083E-4,-1.163701177E0,2.162890434E-1,1.183630606E0
1.970265458E0,-8.604756743E-2,-1.110856295E0,3.189107478E-1,1.158926208E0
1.980285458E0,-1.296722442E-1,-9.122671485E-1,3.907941878E-1,1.000882780E0
1.990304458E0,-8.514953405E-2,-6.704473495E-1,3.901992142E-1,7.803880563E-1
2.000324458E0,3.708564490E-2,-2.861403525E-1,4.444129765E-1,5.298627559E-1
2.010344458E0,1.024579927E-1,7.217091322E-2,5.214126706E-1,5.362624862E-1
2.020363458E0,7.324065268E-2,2.599683106E-1,5.824221373E-1,6.419994250E-1
2.030383458E0,-5.977118760E-2,8.972705901E-2,5.937791467E-1,6.034875434E-1
2.040403458E0,-2.625321746E-1,-1.557707191E-1,5.371615291E-1,6.178431580E-1
2.050423458E0,-4.305286407E-1,-3.111872077E-1,4.801174104E-1,7.160342984E-1
2.060442458E0,-5.068762302E-1,-3.562081456E-1,4.314073920E-1,7.549305224E-1
2.070462458E0,-4.973221421E-1,-2.781277299E-1,3.572631180E-1,6.725483497E-1
2.080482458E0,-4.344742894E-1,-6.447839737E-2,2.472335398E-1,5.040335258E-1
2.090502458E0,-3.692811728E-1,1.984134167E-1,1.163309067E-1,4.350509721E-1
2.100521458E0,-3.132842183E-1,4.293094873E-1,1.016265806E-2,5.315608309E-1
2.110541458E0,-2.275719643E-1,6.459968090E-1,-7.367205620E-2,6.888602529E-1
2.120561458E0,-1.208632812E-1,8.055092692E-1,-1.756441593E-1,8.332490542E-1
2.130581458E0,-4.150188342E-2,7.433398962E-1,-3.060452938E-1,8.049474079E-1
2.140600458E0,6.653383840E-3,4.405620992E-1,-4.160010517E-1,6.059670831E-1
2.150620458E0,8.651439846E-2,2.791902423E-1,-3.901542723E-1,4.874959372E-1
2.160640458E0,1.364564151E-1,1.713742316E-1,-3.058301806E-1,3.761935404E-1
2.170660458E0,1.664683819E-1,9.766778350E-2,-1.872435957E-1,2.689068282E-1
2.180679458E0,1.839992553E-1,1.310695857E-1,-6.626987457E-2,2.354286697E-1
2.190699458E0,1.868174225E-1,1.928512007E-1,4.375490174E-2,2.720419570E-1
2.200719458E0,1.493526399E-1,1.484064162E-1,1.134609729E-1,2.391737188E-1
2.210739458E0,7.770882547E-2,3.643859550E-2,1.432662755E-1,1.670079594E-1
2.220758458E0,-1.203135401E-2,-4.393109679E-2,1.318788379E-1,1.395231975E-1
2.230778458E0,-9.325563163E-2,-2.137385681E-2,1.169523373E-1,1.511003104E-1
2.240798458E0,-1.917216927E-1,4.158168286E-2,4.398189858E-2,2.010488776E-1
2.250818458E0,-3.103748262E-1,1.763163251E-3,-6.773397326E-2,3.176846433E-1
2.260837458E0,-3.771766424E-1,2.554763854E-2,-1.401512027E-1,4.031839047E-1
2.270857458E0,-4.838517010E-1,-2.640583925E-2,-2.047584355E-1,5.260567972E-1
2.280877458E0,-5.897944570E-1,-9.387513995E-2,-3.319451213E-1,6.832697907E-1
2.290897458E0,-7.309116125E-1,-2.822919190E-1,-4.324600101E-1,8.949537268E-1
2.300916458E0,-8.328364491E-1,-4.679833949E-1,-4.751767814E-1,1.066966720E0
2.310936458E0,-8.622198701E-1,-5.404061675E-1,-3.829153180E-1,1.087237817E0
2.320956458E0,-8.600186110E-1,-4.894966781E-1,-1.409212947E-1,9.995488084E-1
2.330976458E0,-7.305037975E-1,-2.866586149E-1,1.911067218E-1,8.076699442E-1
2.340995458E0,-5.509957075E-1,-1.386782993E-2,4.050866365E-1,6.840202990E-1
2.351015458E0,-3.946135640E-1,1.668779850E-1,3.792627454E-1,5.721960825E-1
2.361035458E0,-2.376303673E-1,2.037021816E-1,2.977331579E-1,4.319812537E-1
2.371055458E0,-7.350879908E-2,1.188157797E-1,2.166127264E-1,2.577630817E-1
2.381074458E0,1.256391704E-1,3.222342581E-2,1.365518272E-1,1.883346803E-1
2.391094458E0,2.865242064E-1,4.016550630E-2,3.487845883E-2,2.914204791E-1
2.401114458E0,3.680201471E-1,5.785908923E-2,-5.655184761E-2,3.768084584E-1
2.411134458E0,3.792403042E-1,2.291433048E-3,-1.202759668E-1,3.978627492E-1
2.421153458E0,3.419350088E-1,-1.825630963E-1,-1.527542770E-1,4.166325761E-1
2.431173458E0,2.780345976E-1,-4.111768305E-1,-1.727181226E-1,5.255484500E-1
2.441193458E0,2.301642895E-1,-6.039968729E-1,-2.085198015E-1,6.791673801E-1
2.451213458E0,2.543561757E-1,-7.728756666E-1,-2.910051048E-1,8.641283650E-1
2.461232458E0,3.202088475E-1,-8.786995411E-1,-4.098041952E-1,1.021071040E0
2.471252458E0,4.144141674E-1,-8.351584673E-1,-5.193943381E-1,1.067239076E0
2.481272458E0,4.917153120E-1,-7.298325896E-1,-6.063087583E-1,1.068667332E0
2.491292458E0,5.225576758E-1,-5.780066252E-1,-6.710166335E-1,1.028310024E0
2.501311458E0,5.040677786E-1,-3.522435427E-1,-7.161087990E-1,9.439129466E-1
2.511331458E0,4.573332667E-1,-1.193072349E-1,-7.407590151E-1,8.786989539E-1
2.521351458E0,4.281057119E-1,1.081788912E-2,-7.441273928E-1,8.585552422E-1
2.531371458E0,3.919522166E-1,4.246689752E-2,-7.293018103E-1,8.290422836E-1
2.541390458E0,3.296577334E-1,7.916299254E-2,-7.211585641E-1,7.968755707E-1
2.551410458E0,2.358523905E-1,1.991868615E-1,-7.150378227E-1,7.788330013E-1
2.561430458E0,8.450029790E-2,2.545628250E-1,-7.354275584E-1,7.828130210E-1
2.571450458E0,-1.374962777E-1,6.348314881E-2,-6.589900851E-1,6.761680774E-1
2.581469458E0,-3.829577565E-1,-3.104103804E-1,-4.465254545E-1,6.651287312E-1
2.591489458E0,-6.208749413E-1,-6.820787191E-1,-1.622628421E-1,9.365075023E-1
2.601509458E0,-7.504898310E-1,-1.031867504E0,1.544327438E-1,1.285237334E0
2.611529458E0,-8.130978346E-1,-1.250398517E0,4.708455801E-1,1.564071641E0
2.621548458E0,-8.157494068E-1,-1.249307394E0,7.074381113E-1,1.651267616E0
2.631568458E0,-8.141557574E-1,-1.083570957E0,8.693074584E-1,1.610177342E0
2.641588458E0,-8.491830826E-1,-9.160861969E-1,9.425204396E-1,1.564822868E0
2.651608458E0,-9.261209965E-1,-8.303952813E-1,9.151473641E-1,1.544263942E0
2.661627458E0,-1.021492004E0,-8.331528902E-1,8.076131940E-1,1.545907088E0
2.671647458E0,-1.010510206E0,-1.048026323E0,7.343448400E-1,1.630568120E0
2.681667458E0,-9.464438558E-1,-1.133227587E0,8.167678118E-1,1.687326404E0
2.691686458E0,-7.284960747E-1,-1.210762024E0,7.671382427E-1,1.607840879E0
2.701706458E0,-4.768315554E-1,-1.217130303E0,7.264980674E-1,1.495517954E0
2.711726458E0,-2.942833006E-1,-1.220077872E0,6.302096248E-1,1.404406226E0
2.721746458E0,-1.599799246E-1,-1.112108111E0,5.383083820E-1,1.245854703E0
2.731765458E0,-6.646862626E-2,-9.542739987E-1,4.633987248E-1,1.062918304E0
2.741785458E0,-1.774266362E-2,-1.006592155E0,4.325799644E-1,1.095749968E0
2.751805458E0,6.927585602E-2,-9.546684623E-1,3.259398043E-1,1.011151706E0
2.761825458E0,7.772485167E-2,-8.304947019E-1,2.765760720E-1,8.787815007E-1
2.771844458E0,2.164028026E-2,-5.877177715E-1,3.525882959E-1,6.857105710E-1
2.781864458E0,4.575514048E-2,-2.342208922E-1,4.239044189E-1,4.864647116E-1
2.791884458E0,2.994048968E-2,1.058273204E-2,4.723111093E-1,4.733774510E-1
2.801904458E0,-5.557695031E-2,2.075271755E-1,4.431883991E-1,4.925162770E-1
2.811923458E0,-1.322818398E-1,4.488021135E-1,3.376758397E-1,5.770154200E-1
2.821943458E0,-1.709489375E-1,8.444361091E-1,1.897293776E-1,8.822092259E-1
2.831962875E0,-1.916451603E-1,1.186205626E0,3.827859834E-2,1.202196700E0
2.841982875E0,-2.547508776E-1,1.393519521E0,-1.226095632E-1,1.421909902E0
2.852001875E0,-4.070099294E-1,1.340439320E0,-2.825140059E-1,1.429072712E0
2.862021875E0,-5.589001775E-1,1.006513596E0,-4.407973886E-1,1.232777905E0
2.872041875E0,-6.565085053E-1,9.411913157E-1,-4.648750424E-1,1.238124919E0
2.882061875E0,-7.637636065E-1,1.115563631E0,-3.930818141E-1,1.407952547E0
2.892080875E0,-8.471716642E-1,1.115822792E0,-3.579030335E-1,1.445978877E0
2.902100875E0,-7.946653366E-1,9.368499517E-1,-4.203051329E-1,1.298397949E0
2.912120875E0,-6.687617302E-1,6.776242256E-1,-5.419266224E-1,1.095491354E0
2.922140875E0,-5.238233805E-1,4.418582320E-1,-6.647545099E-1,9.547398544E-1
2.932159875E0,-3.800457120E-1,2.430194318E-1,-7.399834991E-1,8.666422366E-1
2.942179875E0,-2.583163381E-1,-5.913253129E-2,-7.792789340E-1,8.231036652E-1
2.952199875E0,-1.737188995E-1,-3.013294637E-1,-7.415475249E-1,8.190668065E-1
2.962219875E0,-1.093057394E-1,-3.994787931E-1,-6.195723414E-1,7.452522641E-1
2.972238875E0,-5.607820302E-2,-3.446453512E-1,-4.467369318E-1,5.670088793E-1
2.982258875E0,5.192334950E-2,-1.053671017E-1,-2.905642986E-1,3.134100700E-1
2.992278875E0,1.955638677E-1,1.914698929E-1,-1.413338184E-1,3.080279118E-1
3.002298875E0,2.712503076E-1,2.598448396E-1,-1.967598870E-2,3.761425455E-1
3.012317875E0,3.249867857E-1,1.694049686E-1,-2.879758179E-2,3.676190351E-1
3.022337875E0,3.522392213E-1,3.613224253E-2,-1.174849421E-1,3.730693228E-1
3.032357875E0,3.379244804E-1,-1.083019003E-1,-1.829949766E-1,3.992610895E-1
3.042377875E0,2.574208379E-1,-1.970615983E-1,-1.892310232E-1,3.753760001E-1
3.052396875E0,1.418244839E-1,-2.288344353E-1,-1.358905733E-1,3.015719333E-1
3.062416875E0,9.564495087E-2,-1.706950516E-1,-1.267048120E-1,2.331069854E-1
3.072436875E0,2.729545906E-2,-1.235485673E-1,-1.048802063E-1,1.643446021E-1
3.082456875E0,-6.960526109E-2,2.276512980E-2,-6.525497884E-2,9.808850987E-2
3.092475875E0,-1.269846708E-1,1.512458771E-1,-6.998075545E-2,2.095178467E-1
3.102495875E0,-1.323096901E-1,2.837709486E-1,-8.986131847E-2,3.257404825E-1
3.112515875E0,-8.003875613E-2,4.376159012E-1,-9.615303576E-2,4.551475429E-1
3.122535875E0,-2.336671576E-2,5.634348989E-1,-1.008536816E-1,5.728667853E-1
3.132554875E0,2.864082530E-2,6.329934597E-1,-1.189109758E-1,6.447021305E-1
3.142574875E0,2.956919186E-2,5.814604163E-1,-1.250023246E-1,5.954797511E-1
3.152594875E0,-6.280152127E-3,4.360877872E-1,-1.162980422E-1,4.513726100E-1
3.162614875E0,-1.984233037E-2,3.055039048E-1,-9.924700111E-2,3.218327534E-1
3.172633875E0,-2.436544374E-2,2.697208822E-1,-5.136310309E-2,2.756468710E-1
3.182653875E0,-2.751612104E-3,2.278010100E-1,2.462959103E-2,2.291451249E-1
3.192673875E0,5.185224488E-2,2.212602794E-1,7.826752216E-2,2.403550947E-1
3.202692875E0,8.037355542E-2,2.657853663E-1,8.698025346E-2,2.909765177E-1
3.212712875E0,9.048238397E-2,2.411316782E-1,3.992805257E-2,2.606257804E-1
3.222732875E0,5.686094612E-2,1.513810605E-1,-5.401917920E-2,1.704918309E-1
3.232752875E0,1.858865842E-2,1.084634066E-1,-1.215084791E-1,1.639333989E-1
3.242771875E0,-3.282608092E-2,2.100335807E-1,-7.632246614E-2,2.258689342E-1
3.252791875E0,-4.608249664E-2,4.056203663E-1,2.419082634E-2,4.089458083E-1
3.262811875E0,1.910937205E-2,5.150468349E-1,7.614852488E-2,5.209961690E-1
3.272831875E0,1.126513034E-1,5.890699029E-1,4.236979410E-2,6.012394416E-1
3.282850875E0,2.177537978E-1,6.896637678E-1,-5.903213471E-2,7.256291215E-1
3.292870875E0,3.173035681E-1,8.076255918E-1,-1.807162315E-1,8.863402321E-1
3.302890875E0,3.670423031E-1,9.004606605E-1,-2.825777829E-1,1.012620194E0
3.312910875E0,3.915369809E-1,9.593644738E-1,-3.511880040E-1,1.094081540E0
3.322929875E0,3.453919888E-1,9.184855819E-1,-3.955384493E-1,1.057999081E0
3.332949875E0,2.419010252E-1,8.427639008E-1,-4.261184633E-1,9.748559089E-1
3.342969875E0,1.342938840E-1,7.854635119E-1,-4.445393682E-1,9.124708355E-1
3.352989875E0,3.811275959E-2,8.093419671E-1,-4.408599436E-1,9.224123222E-1
3.363008875E0,-5.437963083E-2,8.448840976E-1,-4.116495550E-1,9.414040783E-1
3.373028875E0,-1.308184713E-1,8.406686187E-1,-3.799819052E-1,9.317850864E-1
3.383048875E0,-1.891500056E-1,8.413971663E-1,-3.525399268E-1,9.316712489E-1
3.393068875E0,-2.108078897E-1,8.447586298E-1,-3.510916829E-1,9.387877709E-1
3.403087875E0,-2.068122327E-1,8.060220480E-1,-3.646917641E-1,9.085388953E-1
3.413107875E0,-1.999876201E-1,7.745741606E-1,-3.861930668E-1,8.883159704E-1
3.423127875E0,-1.935655177E-1,7.641879320E-1,-4.133378267E-1,8.901117705E-1
3.433147875E0,-1.735204309E-1,6.889536381E-1,-4.416909218E-1,8.365747580E-1
3.443166875E0,-1.501824707E-1,5.666180849E-1,-4.505745769E-1,7.393431395E-1
3.453186875E0,-1.357553303E-1,3.966575563E-1,-4.558883905E-1,6.193552707E-1
3.463206875E0,-1.211830527E-1,2.129384577E-1,-4.512684047E-1,5.134893301E-1
3.473226875E0,-9.502255917E-2,6.526963413E-2,-4.239017665E-1,4.392973020E-1
3.483245875E0,-6.880536675E-2,-1.011297703E-1,-3.862820864E-1,4.051854627E-1
3.493265875E0,-4.478392377E-2,-2.529291511E-1,-3.307231963E-1,4.187560004E-1
3.503285875E0,2.628120966E-2,-3.552109599E-1,-2.772304714E-1,4.513560261E-1
3.513305875E0,1.059779078E-1,-4.241833687E-1,-2.242932320E-1,4.913962771E-1
3.523324875E0,1.885901988E-1,-4.788262248E-1,-1.796600968E-1,5.450858345E-1
3.533344875E0,2.822490335E-1,-5.255737305E-1,-1.527983844E-1,6.158243332E-1
3.543364875E0,3.374030292E-1,-5.324448943E-1,-1.444853991E-1,6.466949823E-1
3.553384875E0,3.575860560E-1,-4.981303513E-1,-1.482918561E-1,6.308661577E-1
3.563403875E0,3.530115485E-1,-4.561093450E-1,-1.742413640E-1,6.025055526E-1
3.573423875E0,3.051159382E-1,-4.519923627E-1,-2.048621327E-1,5.825472729E-1
3.583443875E0,2.244096994E-1,-4.840607047E-1,-2.372630537E-1,5.839248545E-1
3.593463875E0,1.222292557E-1,-5.607312322E-1,-2.607145607E-1,6.303424370E-1
3.603482875E0,3.387201577E-2,-6.162284017E-1,-2.408927232E-1,6.625058947E-1
3.613502875E0,-5.239256471E-2,-6.169818044E-1,-1.440942734E-1,6.357473456E-1
3.623522875E0,-1.016907692E-1,-6.178830862E-1,-1.106087957E-2,6.262929537E-1
3.633542875E0,-9.494312108E-2,-5.653614998E-1,1.161194444E-1,5.849201202E-1
3.643561875E0,-3.791457415E-2,-5.168277621E-1,1.944521964E-1,5.534980644E-1
3.653581875E0,3.018937632E-2,-4.657880068E-1,1.999665350E-1,5.077957078E-1
3.663601875E0,9.653916955E-2,-4.022952914E-1,1.417524070E-1,4.373271746E-1
3.673621875E0,1.496788114E-1,-3.228214979E-1,5.383719876E-2,3.598831895E-1
3.683640875E0,1.833820641E-1,-2.120131850E-1,-2.343683690E-2,2.812967426E-1
3.693660875E0,1.971127987E-1,-1.003188789E-1,-4.192769900E-2,2.251116719E-1
3.703680875E0,1.760663688E-1,-2.436142601E-2,-1.035757083E-2,1.780452880E-1
3.713700875E0,1.393845081E-1,2.685195953E-2,5.119447038E-2,1.508971260E-1
3.723719875E0,1.014574543E-1,4.541556910E-2,1.176585183E-1,1.618632628E-1
3.733739875E0,6.209486723E-2,3.452403843E-2,1.724940687E-1,1.865526347E-1
3.743759875E0,1.605357416E-2,9.533160366E-3,1.995474100E-1,2.004189792E-1
3.753778875E0,-2.817700431E-2,1.490821782E-2,1.866324246E-1,1.893353122E-1
3.763798875E0,-5.580594391E-2,2.327501029E-2,1.578150392E-1,1.690018227E-1
3.773818875E0,-8.082314581E-2,8.501160890E-2,1.275338382E-1,1.732750254E-1
3.783838875E0,-1.216843650E-1,1.562882513E-1,9.159835428E-2,2.182277725E-1
3.793857875E0,-1.667983085E-1,1.738840193E-1,5.252152309E-2,2.466086743E-1
3.803877875E0,-2.071211338E-1,1.590206325E-1,1.663939096E-2,2.616554891E-1
3.813897875E0,-2.542657554E-1,1.177432239E-1,-5.205985624E-3,2.802528206E-1
3.823917875E0,-3.255930245E-1,3.001037054E-2,-3.182166955E-3,3.269886330E-1
3.833937625E0,-3.990283608E-1,-2.328081429E-2,3.642463312E-2,4.013631560E-1
3.843957625E0,-4.545217156E-1,-6.445717812E-2,9.931512922E-2,4.696894854E-1
3.853977625E0,-4.983197749E-1,-6.564361602E-2,1.592109501E-1,5.272379055E-1
3.863997625E0,-5.254866481E-1,-2.306606248E-2,1.993828267E-1,5.625137973E-1
3.874016625E0,-5.564051867E-1,-3.876920789E-3,2.156827152E-1,5.967585742E-1
3.884036625E0,-5.817936659E-1,4.996262025E-3,2.185998112E-1,6.215261135E-1
3.894056625E0,-6.123401523E-1,-5.981895328E-2,2.002650201E-1,6.470277023E-1
3.904076625E0,-6.068862081E-1,-1.787962317E-1,1.708046645E-1,6.553267852E-1
3.914095625E0,-5.447447896E-1,-2.745025158E-1,1.500751525E-1,6.281887204E-1
3.924115625E0,-4.572018087E-1,-3.393954635E-1,1.426380575E-1,5.869994803E-1
3.934135625E0,-3.935605288E-1,-4.239146113E-1,1.521468759E-1,5.981155067E-1
3.944155625E0,-3.804168701E-1,-4.546279013E-1,1.756595820E-1,6.182716332E-1
3.954174625E0,-3.931169510E-1,-4.539972544E-1,1.979686171E-1,6.323337864E-1
3.964194625E0,-4.012142718E-1,-4.663314819E-1,2.151815891E-1,6.517216118E-1
3.974214625E0,-3.932365179E-1,-4.822225571E-1,2.132864892E-1,6.577725139E-1
3.984234625E0,-3.470511436E-1,-4.907542765E-1,1.949582994E-1,6.318963481E-1
3.994253625E0,-2.675917447E-1,-4.790315628E-1,1.784871817E-1,5.770045528E-1
4.004273625E0,-1.606878042E-1,-4.431642294E-1,1.641396433E-1,4.991562152E-1
4.014293625E0,-5.043507740E-2,-3.766608238E-1,1.489795893E-1,4.081813216E-1
4.024313625E0,2.691464871E-2,-3.194896579E-1,1.256823391E-1,3.443749267E-1
4.034332625E0,3.326735273E-2,-3.278532922E-1,9.780542552E-2,3.437446716E-1
4.044352625E0,-2.613682300E-3,-3.109486103E-1,7.754542679E-2,3.204827028E-1
4.054372625E0,-4.922166467E-2,-2.791153193E-1,6.550048292E-2,2.908925007E-1
4.064392625E0,-6.445015222E-2,-2.342221588E-1,5.703589320E-2,2.495334344E-1
4.074411625E0,-4.418748990E-2,-1.378221214E-1,4.541092739E-2,1.516892341E-1
4.084431625E0,3.568823449E-4,-7.649026811E-2,9.392006323E-3,7.706554524E-2
4.094451625E0,4.003212601E-2,-3.032996319E-2,-2.743178792E-2,5.722744769E-2
4.104471625E0,4.319330677E-2,5.104293115E-3,-7.443369925E-2,8.620957686E-2
4.114490625E0,3.295611590E-2,1.653164998E-2,-1.178677231E-1,1.234998023E-1
4.124510625E0,2.515261620E-2,9.141831845E-2,-1.432242990E-1,1.717648476E-1
4.134530625E0,1.285839919E-2,1.789851785E-1,-1.591457427E-1,2.398507868E-1
4.144550625E0,-9.311787784E-3,2.399005145E-1,-1.552604437E-1,2.859104259E-1
4.154569625E0,-6.054595113E-2,3.074675798E-1,-1.342299879E-1,3.409102734E-1
4.164589625E0,-1.125489175E-1,2.737682760E-1,-1.116735339E-1,3.163657787E-1
4.174609625E0,-1.720703095E-1,1.774140447E-1,-8.053106815E-2,2.599407387E-1
4.184629625E0,-2.415246665E-1,9.520379454E-2,-4.504273087E-2,2.634896101E-1
4.194648625E0,-3.096432984E-1,5.890384689E-2,7.878274657E-3,3.152946283E-1
4.204668625E0,-3.613905013E-1,1.902715489E-2,6.001996621E-2,3.668344632E-1
4.214688625E0,-4.288494289E-1,-5.561459064E-2,1.146682948E-1,4.473853296E-1
4.224707625E0,-5.136857033E-1,-9.135540575E-2,1.734454334E-1,5.498200890E-1
4.234727625E0,-5.512278080E-1,-1.089120284E-1,2.317375094E-1,6.077961825E-1
4.244747625E0,-5.385063887E-1,-7.871764153E-2,2.334643006E-1,5.921918417E-1
4.254767625E0,-5.181268454E-1,1.026948541E-2,1.912784874E-1,5.524023443E-1
4.264786625E0,-4.734174311E-1,1.317209452E-1,1.236013323E-1,5.067067799E-1
4.274806625E0,-3.982787430E-1,2.118024677E-1,3.427571803E-2,4.523948135E-1
4.284826625E0,-3.424247503E-1,2.787027955E-1,-4.719852656E-2,4.440243898E-1
4.294846625E0,-3.054084182E-1,3.477614820E-1,-1.093021110E-1,4.755620903E-1
4.304865625E0,-2.892245352E-1,4.302191734E-1,-1.302490234E-1,5.345130280E-1
4.314885625E0,-2.941740155E-1,4.848520458E-1,-1.146389022E-1,5.785861523E-1
4.324905625E0,-2.980405092E-1,4.930393100E-1,-6.211116165E-2,5.794598370E-1
4.334925625E0,-2.988045812E-1,4.510458112E-1,1.185627189E-2,5.411719437E-1
4.344944625E0,-2.690683603E-1,4.079270065E-1,9.849548340E-2,4.985013394E-1
4.354964625E0,-2.045322508E-1,4.043186903E-1,1.386689991E-1,4.738524414E-1
4.364984625E0,-1.581640095E-1,3.432186544E-1,1.313610673E-1,4.000882760E-1
4.375004625E0,-1.286790818E-1,2.709354162E-1,8.682928234E-2,3.122557127E-1
4.385023625E0,-1.206018254E-1,1.980031282E-1,3.562296182E-2,2.345613661E-1
4.395043625E0,-8.670751005E-2,7.754089683E-2,-1.098235697E-2,1.168391850E-1
4.405063625E0,-2.967217565E-2,-1.071622409E-2,-3.616291657E-2,4.798991562E-2
4.415083625E0,6.597551703E-2,-3.564820439E-2,-2.661735006E-2,7.957415817E-2
4.425102625E0,1.878327131E-1,-2.118777484E-2,-5.649218336E-3,1.891083382E-1
4.435122625E0,2.782859206E-1,2.817960223E-3,9.787261486E-3,2.784722338E-1
4.445142625E0,3.355498612E-1,4.502961040E-2,2.553594671E-2,3.395194541E-1
4.455162625E0,3.321575224E-1,7.397630811E-2,3.130701929E-2,3.417327074E-1
4.465181625E0,2.655081153E-1,7.274907827E-2,2.293108776E-2,2.762477556E-1
4.475201625E0,1.707794666E-1,4.523462802E-2,8.865867741E-3,1.768909308E-1
4.485221625E0,6.090443581E-2,2.416167967E-2,-7.250927854E-3,6.592202228E-2
4.495241625E0,-5.469326675E-2,-4.291533493E-3,-2.126953937E-2,5.884015629E-2
4.505260625E0,-1.697453856E-1,-5.617335439E-2,-2.872849070E-2,1.810918769E-1
4.515280625E0,-2.740480900E-1,-8.694298565E-2,-1.258094516E-2,2.877841527E-1
4.525300625E0,-3.441126049E-1,-7.350965589E-2,1.907925494E-2,3.523934907E-1
4.535320625E0,-3.954524994E-1,-7.562633604E-2,4.829999432E-2,4.055057477E-1
4.545339625E0,-4.370301366E-1,-1.047728211E-1,6.267220527E-2,4.537625917E-1
4.555359625E0,-4.562288523E-1,-1.650755703E-1,7.432193309E-2,4.908344520E-1
4.565379625E0,-4.669867158E-1,-1.992934346E-1,8.487172425E-2,5.147792492E-1
4.575399625E0,-4.997417331E-1,-1.537701637E-1,8.763448149E-2,5.301573968E-1
4.585418625E0,-5.692141056E-1,-5.538154393E-2,9.464029223E-2,5.796797377E-1
4.595438625E0,-6.605618596E-1,2.225066721E-2,7.186813653E-2,6.648323786E-1
4.605458625E0,-7.574521303E-1,8.789889514E-2,5.085691437E-2,7.642292661E-1
4.615477625E0,-8.529480100E-1,1.414175034E-1,2.821978182E-2,8.650523534E-1
4.625497625E0,-9.454556108E-1,1.829085350E-1,-2.797315130E-3,9.629899631E-1
4.635517625E0,-1.000867367E0,2.951333225E-1,-2.771784551E-2,1.043842633E0
4.645537625E0,-1.005107641E0,3.999218941E-1,-4.261336103E-2,1.082587082E0
4.655556625E0,-1.009525776E0,3.599257469E-1,-7.713805139E-2,1.074541351E0
4.665576625E0,-9.904499054E-1,2.065025121E-1,-8.721023798E-2,1.015499842E0
4.675596625E0,-9.689624906E-1,2.338595130E-2,-4.928868264E-2,9.704970814E-1
4.685616625E0,-8.890438080E-1,-1.644839346E-1,-1.635601744E-2,9.042794792E-1
4.695635625E0,-7.145361900E-1,-2.790920138E-1,5.888035521E-3,7.671303592E-1
4.705655625E0,-4.764083028E-1,-3.061793149E-1,1.617855020E-2,5.665442518E-1
4.715675625E0,-2.640347779E-1,-2.903348505E-1,2.952757990E-3,3.924505168E-1
4.725695625E0,-1.009944081E-1,-1.757308543E-1,2.082012966E-2,2.037515188E-1
4.735714625E0,1.011653543E-1,-1.313342247E-2,5.766043440E-2,1.171820864E-1
4.745734625E0,3.094504476E-1,1.385503560E-1,5.632083490E-2,3.436972754E-1
4.755754625E0,4.317840934E-1,2.050580084E-1,9.745068848E-2,4.878349381E-1
4.765774625E0,4.549883306E-1,2.237933725E-1,1.460287422E-1,5.276573207E-1
4.775793625E0,5.047859550E-1,3.183850944E-1,1.708834916E-1,6.207890917E-1
4.785813625E0,6.807683706E-1,4.455356002E-1,2.254885584E-1,8.442704753E-1
4.795833625E0,9.503052831E-1,6.187563539E-1,2.894113362E-1,1.170341180E0
4.805853625E0,1.304352760E0,6.608680487E-1,3.896856904E-1,1.513253990E0
4.815872625E0,1.765625238E0,6.855299473E-1,4.370617270E-1,1.943812425E0
4.825892625E0,2.486414194E0,6.763460636E-1,4.150611460E-1,2.609976110E0
4.835912083E0,3.349798441E0,8.460280299E-1,3.179971874E-1,3.469587185E0
4.845932083E0,4.382249832E0,1.165834665E0,1.283891201E-1,4.536492899E0
4.855951083E0,5.640521526E0,1.247744203E0,-7.117272168E-2,5.777318949E0
4.865971083E0,6.912522316E0,1.270448565E0,-1.425634474E-1,7.029745989E0
4.875991083E0,7.812188148E0,4.752228260E-1,-1.638024300E-1,7.828342841E0
4.886011083E0,8.379942894E0,-5.119971931E-2,-3.907606751E-2,8.380190407E0
4.896030083E0,8.884461403E0,-7.982848287E-1,7.451752666E-3,8.920256085E0
4.906050083E0,9.597434998E0,-1.438825846E0,-1.529989950E-2,9.704700533E0
4.916070083E0,1.062563896E1,-2.040280104E0,-1.415856630E-1,1.082067432E1
4.926090083E0,1.163791943E1,-2.011484385E0,-3.360315859E-1,1.181525096E1
4.936109083E0,1.229060268E1,-1.880521536E0,-1.997629851E-1,1.243523948E1
4.946129083E0,1.302425861E1,-2.097291708E0,1.316052079E-1,1.319269741E1
4.956149083E0,1.406795597E1,-1.916025996E0,-4.165732265E-1,1.420394572E1
4.966169083E0,1.445065308E1,-2.687260628E0,-7.397760153E-1,1.471699740E1
4.976188083E0,1.437295246E1,-2.786556482E0,-9.661380053E-1,1.467242591E1
4.986208083E0,1.430582237E1,-2.933894873E0,-1.198724508E0,1.465268690E1
4.996228083E0,1.423904705E1,-3.118315458E0,-1.444394112E0,1.464788813E1
5.006247083E0,1.419030190E1,-3.338617802E0,-1.710151672E0,1.467772651E1
5.016267083E0,1.414184475E1,-3.584043503E0,-1.992134094E0,1.472432474E1
5.026287083E0,1.410252762E1,-3.861499786E0,-2.291388512E0,1.480009889E1
5.036307083E0,1.404797459E1,-4.176433563E0,-2.617457390E0,1.488755421E1
5.046326083E0,1.397901535E1,-4.512918949E0,-2.968800306E0,1.498642996E1
5.056346083E0,1.389100456E1,-4.863477230E0,-3.350372791E0,1.509431735E1
5.066366083E0,1.377249527E1,-5.244591713E0,-3.756418228E0,1.520848599E1
5.076386083E0,1.361869526E1,-5.634045124E0,-4.191185951E0,1.532244643E1
5.086405083E0,1.341087246E1,-6.048458099E0,-4.654588699E0,1.543050684E1
5.096425083E0,1.313540077E1,-6.498469353E0,-5.147487164E0,1.553272293E1
5.106445083E0,1.278198433E1,-7.010709763E0,-5.660283089E0,1.563866936E1
5.116465083E0,1.234514618E1,-7.586850643E0,-6.198588371E0,1.576024856E1
5.126484083E0,1.182257843E1,-8.218560219E0,-6.758342266E0,1.590576257E1
5.136504083E0,1.119376659E1,-8.896916389E0,-7.336306095E0,1.607099620E1
5.146524083E0,1.044894028E1,-9.597026825E0,-7.921826839E0,1.624926513E1
5.156544083E0,9.601322174E0,-1.032244015E1,-8.504665375E0,1.646412741E1
5.166563083E0,8.633488655E0,-1.105293941E1,-9.077088356E0,1.670623025E1
5.176583083E0,7.557690620E0,-1.176658916E1,-9.617029190E0,1.697228796E1
5.186603083E0,6.361146927E0,-1.243048477E1,-1.011237717E1,1.724068774E1
5.196623083E0,5.062285423E0,-1.302554321E1,-1.054062557E1,1.750417942E1
5.206642083E0,3.668896198E0,-1.349582767E1,-1.088278484E1,1.772098106E1
5.216662083E0,2.193602324E0,-1.382585812E1,-1.112371731E1,1.788024973E1
5.226682083E0,6.727417707E-1,-1.398246956E1,-1.124800110E1,1.795771603E1
5.236702083E0,-8.598690629E-1,-1.396166992E1,-1.124337101E1,1.794661510E1
5.246721083E0,-2.374885559E0,-1.376472092E1,-1.111711979E1,1.785211404E1
5.256741083E0,-3.836238623E0,-1.340964794E1,-1.087660694E1,1.768716945E1
5.266761083E0,-5.218291759E0,-1.291606045E1,-1.053068447E1,1.746283201E1
5.276781083E0,-6.501971722E0,-1.231874561E1,-1.010042000E1,1.720597611E1
5.286800083E0,-7.668331623E0,-1.164105511E1,-9.604995728E0,1.692847946E1
5.296820083E0,-8.707812309E0,-1.092136860E1,-9.063224792E0,1.665065557E1
5.306840083E0,-9.624238014E0,-1.018223953E1,-8.499702454E0,1.638746170E1
5.316860083E0,-1.041724300E1,-9.439911842E0,-7.920794487E0,1.613598069E1
5.326879083E0,-1.109856510E1,-8.711229324E0,-7.348993301E0,1.590821694E1
5.336899083E0,-1.167291546E1,-8.002476692E0,-6.788586140E0,1.569654390E1
5.346919083E0,-1.214720154E1,-7.317433357E0,-6.253479958E0,1.549855954E1
5.356939083E0,-1.254242897E1,-6.655388355E0,-5.743119240E0,1.531633563E1
5.366958083E0,-1.286433315E1,-6.027102947E0,-5.265155315E0,1.515054118E1
5.376978083E0,-1.312666702E1,-5.433385849E0,-4.824589729E0,1.500359074E1
5.386998083E0,-1.334332466E1,-4.870895386E0,-4.416354179E0,1.487528551E1
5.397018083E0,-1.351832676E1,-4.341568470E0,-4.049465656E0,1.476457068E1
5.407037083E0,-1.365999126E1,-3.845413208E0,-3.716517687E0,1.466952855E1
5.417057083E0,-1.376764584E1,-3.381510973E0,-3.417704582E0,1.458298299E1
5.427077083E0,-1.386063766E1,-2.951300144E0,-3.156624079E0,1.451866814E1
5.437096083E0,-1.393289375E1,-2.551621199E0,-2.927972555E0,1.446407005E1
5.447116083E0,-1.398725700E1,-2.172451258E0,-2.730148554E0,1.441584594E1
5.457136083E0,-1.403015327E1,-1.817769885E0,-2.556819439E0,1.437660648E1
5.467156083E0,-1.405939960E1,-1.477093697E0,-2.415791512E0,1.434170742E1
5.477175083E0,-1.408045387E1,-1.158645868E0,-2.300448656E0,1.431410862E1
5.487195083E0,-1.408679390E1,-8.529633880E-1,-2.213823795E0,1.428517850E1
5.497215083E0,-1.408940792E1,-5.594753027E-1,-2.147620201E0,1.426312381E1
5.507235083E0,-1.408763885E1,-2.760605216E-1,-2.108428240E0,1.424721894E1
5.517254083E0,-1.408258724E1,5.062509328E-3,-2.087307215E0,1.423643707E1
5.527274083E0,-1.407339764E1,2.834947705E-1,-2.093724966E0,1.423111291E1
5.537294083E0,-1.405638504E1,5.645930171E-1,-2.123010874E0,1.422701307E1
5.547314083E0,-1.403583622E1,8.491275907E-1,-2.171367407E0,1.422816054E1
5.557333083E0,-1.400839520E1,1.141949654E0,-2.246232271E0,1.423322677E1
5.567353083E0,-1.397004414E1,1.443566203E0,-2.346147299E0,1.423904574E1
5.577373083E0,-1.392930794E1,1.759556413E0,-2.472072840E0,1.425597427E1
5.587393083E0,-1.387257385E1,2.094441891E0,-2.621945381E0,1.427268684E1
5.597412083E0,-1.380423737E1,2.446619987E0,-2.799071312E0,1.429607355E1
5.607432083E0,-1.372014809E1,2.821019411E0,-3.010640860E0,1.432705735E1
5.617452083E0,-1.361762047E1,3.216251135E0,-3.244114161E0,1.436343048E1
5.627472083E0,-1.348874474E1,3.645830154E0,-3.514522314E0,1.440799012E1
5.637491083E0,-1.332688808E1,4.099464417E0,-3.811526537E0,1.445473241E1
5.647511083E0,-1.313737392E1,4.588407516E0,-4.146492004E0,1.452024356E1
5.657531083E0,-1.290362740E1,5.118400574E0,-4.513223171E0,1.459694515E1
5.667551083E0,-1.263187504E1,5.679283142E0,-4.912508488E0,1.469528032E1
5.677570083E0,-1.230560970E1,6.280173779E0,-5.350289822E0,1.481533712E1
5.687590083E0,-1.191515827E1,6.912731647E0,-5.817319870E0,1.495319584E1
5.697610083E0,-1.146977139E1,7.579657555E0,-6.313124180E0,1.512819887E1
5.707630083E0,-1.093946648E1,8.273400307E0,-6.831893921E0,1.532304976E1
5.717649083E0,-1.031810856E1,8.989924431E0,-7.371655941E0,1.554424063E1
5.727669083E0,-9.602407455E0,9.708938599E0,-7.921348572E0,1.578662348E1
5.737689083E0,-8.779829979E0,1.042208862E1,-8.465214729E0,1.604260596E1
5.747709083E0,-7.843686581E0,1.110656929E1,-8.992168427E0,1.630148440E1
5.757728083E0,-6.796973705E0,1.173903084E1,-9.485368729E0,1.655221787E1
5.767748083E0,-5.642619133E0,1.230039215E1,-9.929188728E0,1.678474267E1
5.777768083E0,-4.386976242E0,1.275320816E1,-1.029993534E1,1.696993067E1
5.787787083E0,-3.047114372E0,1.308783245E1,-1.059009647E1,1.710924918E1
5.797807083E0,-1.648750424E0,1.328286934E1,-1.077536201E1,1.718317265E1
5.807827083E0,-2.171452045E-1,1.333541107E1,-1.085287762E1,1.719492056E1
5.817847083E0,1.217402697E0,1.326359272E1,-1.081808949E1,1.715913813E1
5.827866083E0,2.627988338E0,1.306876945E1,-1.067472649E1,1.707772945E1
5.837886625E0,3.986700773E0,1.278644657E1,-1.042642975E1,1.697343325E1
5.847906625E0,5.271796703E0,1.242558193E1,-1.008565998E1,1.684955382E1
5.857926625E0,6.460773468E0,1.201657581E1,-9.665888786E0,1.672031980E1
5.867945625E0,7.541514874E0,1.155791092E1,-9.180777550E0,1.657547670E1
5.877965625E0,8.503158569E0,1.105673027E1,-8.643380165E0,1.640923553E1
5.887985625E0,9.343153000E0,1.051181507E1,-8.070806503E0,1.621513742E1
5.898005625E0,1.006751823E1,9.938652039E0,-7.482213974E0,1.600360127E1
5.908024625E0,1.067951012E1,9.338158607E0,-6.882878304E0,1.576791541E1
5.918044625E0,1.118145657E1,8.717822075E0,-6.297782421E0,1.551410507E1
5.928064625E0,1.157805061E1,8.112689972E0,-5.730834961E0,1.525481773E1
5.938084625E0,1.190090847E1,7.506636620E0,-5.183065414E0,1.499484521E1
5.948103625E0,1.217127037E1,6.937873840E0,-4.666896343E0,1.476664611E1
5.958123625E0,1.238981819E1,6.408105373E0,-4.181909561E0,1.456227238E1
5.968143625E0,1.256892109E1,5.916010380E0,-3.726091385E0,1.438265320E1
5.978163625E0,1.272386837E1,5.464835644E0,-3.299082994E0,1.423535049E1
5.988182625E0,1.286521149E1,5.070732594E0,-2.897342205E0,1.412871500E1
5.998202625E0,1.300113106E1,4.760745049E0,-2.522543669E0,1.407328422E1
6.008222625E0,1.312105560E1,4.529597759E0,-2.162868500E0,1.404839337E1
6.018242625E0,1.322360992E1,4.353104115E0,-1.816123128E0,1.403964665E1
6.028261625E0,1.332527637E1,4.218352795E0,-1.485408545E0,1.405574364E1
6.038281625E0,1.342382717E1,4.141057491E0,-1.158197880E0,1.409570557E1
6.048301625E0,1.349985790E1,4.129613876E0,-8.354299068E-1,1.414205845E1
6.058321625E0,1.357826805E1,4.178381920E0,-4.945730269E-1,1.421523272E1
6.068340625E0,1.365024185E1,4.264452934E0,-1.497259438E-1,1.430164603E1
6.078360625E0,1.371284389E1,4.374210835E0,2.107845694E-1,1.439514634E1
6.088380625E0,1.375074100E1,4.504752159E0,5.738127828E-1,1.448119233E1
6.098400625E0,1.374534893E1,4.612865925E0,9.374011159E-1,1.452900100E1
6.108419625E0,1.370629120E1,4.702644348E0,1.311405301E0,1.454981327E1
6.118439625E0,1.364645004E1,4.814458370E0,1.681549788E0,1.456819199E1
6.128459625E0,1.353324223E1,4.965228081E0,2.064781666E0,1.456246745E1
6.138478625E0,1.217009354E1,-4.661822796E0,1.863570809E0,1.316497872E1
6.148498625E0,5.132899761E0,2.520972252E1,-2.009442091E0,2.580532168E1
6.158518625E0,5.287531376E0,2.296932983E1,-2.641727209E0,2.371764794E1
6.168538625E0,7.845737457E0,3.243293762E0,-1.428075314E0,8.608945916E0
6.178557625E0,8.457256317E0,-4.611954689E-1,-6.625527143E-1,8.495696662E0
6.188577625E0,8.708692551E0,2.813539028E0,-2.183246464E-1,9.154506729E0
6.198597625E0,9.247166634E0,4.795558929E0,3.930487335E-1,1.042410493E1
6.208617625E0,9.846396446E0,9.287209511E0,8.505435586E-1,1.356197655E1
6.218636625E0,1.069589901E1,1.572387505E1,1.514621496E0,1.907712191E1
6.228656625E0,1.479401588E1,9.353256226E0,6.297479272E-1,1.751407692E1
6.238676625E0,1.816115952E1,1.006491756E1,-5.791935325E-1,2.077175355E1
6.248696625E0,6.416305542E0,2.026971436E1,-5.735156536E-1,2.126873802E1
6.258715625E0,-1.474919510E1,-1.380994987E1,-4.761304855E-1,2.021089241E1
6.268735625E0,-9.628962517E0,-1.884861946E0,3.320192814E0,1.035824812E1
6.278755625E0,-6.879717350E0,5.120034695E0,2.335998535E0,8.888315659E0
6.288775625E0,-6.731611252E0,7.389702797E-1,9.015686512E-1,6.831800140E0
6.298794625E0,-4.865740299E0,1.077812314E0,-1.921460629E0,5.341265673E0
6.308814625E0,-3.075459003E0,-7.727836370E-1,-4.425919056E0,5.444667310E0
6.318834625E0,-1.221704721E0,-1.328141928E0,-5.485266685E0,5.774484740E0
6.328854625E0,4.253087640E-1,-1.825977206E0,-5.300856590E0,5.622647143E0
6.338873625E0,1.620282769E0,-2.752533674E0,-3.789418459E0,4.955950982E0
6.348893625E0,1.907588005E0,-2.537824392E0,-1.616237044E0,3.562536572E0
6.358913625E0,1.631670356E0,-1.980563402E0,4.075356126E-1,2.598281127E0
6.368933625E0,1.162381649E0,-1.617371917E0,1.327919483E0,2.393823964E0
6.378952625E0,4.129255116E-1,-1.046323419E0,8.985603452E-1,1.439691241E0
6.388972625E0,1.809318215E-1,-9.545612931E-1,-5.342982411E-1,1.108782304E0
6.398992625E0,9.540117979E-1,-1.210775256E0,-1.806082249E0,2.374457479E0
6.409012625E0,2.005473375E0,-1.556195259E0,-1.887533903E0,3.163297548E0
6.419031625E0,2.532999039E0,-1.744523883E0,-1.322885633E0,3.348055272E0
6.429051625E0,2.452779055E0,-1.554919124E0,-8.612045646E-1,3.029120644E0
6.439071625E0,1.856720686E0,-1.220546007E0,-7.204213738E-1,2.335840580E0
6.449090625E0,8.267693520E-1,-4.816407561E-1,-7.549077272E-1,1.218774407E0
6.459110625E0,-5.472022891E-1,3.216679692E-1,-6.856138706E-1,9.343270344E-1
6.469130625E0,-1.745481133E0,7.232772112E-1,-7.189101577E-1,2.021550426E0
6.479150625E0,-2.080285788E0,9.001805782E-1,-8.219963312E-1,2.411139150E0
6.489169625E0,-1.550013781E0,7.937999368E-1,-5.830588937E-1,1.836469094E0
6.499189625E0,-6.586236358E-1,3.460725248E-1,-1.193023697E-1,7.535146591E-1
6.509209625E0,2.256725132E-1,1.085574403E-1,1.216104701E-1,2.783916441E-1
6.519229625E0,7.296261787E-1,-4.125361145E-1,2.529631555E-1,8.755174267E-1
6.529248625E0,7.921772599E-1,-9.960132837E-1,3.630882502E-1,1.323412388E0
6.539268625E0,5.531250238E-1,-1.185605884E0,3.012405932E-1,1.342517969E0
6.549288625E0,1.834171265E-1,-1.251547933E0,7.688894868E-2,1.267251349E0
6.559308625E0,2.873833850E-2,-1.183494568E0,-1.859187037E-1,1.198353474E0
6.569327625E0,1.067183763E-1,-6.671604514E-1,-4.527300596E-1,8.132996906E-1
6.579347625E0,5.398093462E-1,6.892524660E-3,-5.520153642E-1,7.721156645E-1
6.589367625E0,1.214507341E0,-7.852041721E-2,-3.435407877E-1,1.264600257E0
6.599387625E0,2.114686251E0,-7.611931115E-2,3.113561869E-2,2.116284838E0
6.609406625E0,2.855476618E0,-4.328545555E-2,4.636831284E-1,2.893202791E0
6.619426625E0,3.305464029E0,2.521796897E-2,7.670975924E-1,3.393400523E0
6.629446625E0,3.528059244E0,1.112393737E-1,1.093410850E0,3.695283956E0
6.639466625E0,3.519652128E0,5.660345554E-1,1.253366947E0,3.778792787E0
6.649485625E0,3.315733910E0,1.599738479E0,1.462725997E0,3.961416653E0
6.659505625E0,2.915590048E0,2.044960499E0,1.747441292E0,3.966872803E0
6.669525625E0,2.673723221E0,2.500154257E0,2.168166637E0,4.254469854E0
6.679545625E0,2.792382479E0,2.936003447E0,2.673325300E0,4.854295449E0
6.689564625E0,3.212441206E0,2.805884838E0,2.926426649E0,5.172691868E0
6.699584625E0,3.901886702E0,2.693058968E0,2.951772213E0,5.584822793E0
6.709604625E0,4.629427433E0,2.248005390E0,2.851751804E0,5.883673593E0
6.719623625E0,5.160439014E0,1.423171043E0,2.617890596E0,5.958934285E0
6.729643625E0,5.643309116E0,8.709811568E-1,2.532602787E0,6.246568885E0
6.739663625E0,5.967658043E0,4.753475487E-1,2.805200100E0,6.611206048E0
6.749683625E0,6.204866409E0,4.289398193E-1,3.294873714E0,7.038504765E0
6.759702625E0,6.377456665E0,3.464654386E-1,3.899596691E0,7.483237680E0
6.769722625E0,6.460096836E0,2.155130655E-1,4.461624146E0,7.854004522E0
6.779742625E0,6.351634502E0,-1.849749535E-1,5.036557674E0,8.108291423E0
6.789762625E0,5.830611706E0,5.005457997E-2,5.480288506E0,8.002006025E0
6.799781625E0,5.258879185E0,2.968549967E0,5.520216465E0,8.181741196E0
6.809801625E0,4.677192688E0,4.844269753E0,5.552175522E0,8.727527365E0
6.819821625E0,4.184550285E0,4.807041645E0,5.375244617E0,8.337347610E0
6.829841625E0,3.932337523E0,4.224029064E0,5.548426151E0,8.005668784E0
6.839860583E0,3.483776093E0,4.225740910E0,5.549097538E0,7.796541899E0
6.849880583E0,3.125869751E0,4.144012928E0,5.563187122E0,7.608742065E0
6.859900583E0,2.707272768E0,3.875983000E0,5.676333427E0,7.387376478E0
6.869920583E0,2.451356173E0,3.053796530E0,5.924188614E0,7.101466825E0
6.879939583E0,2.384207964E0,2.240662813E0,6.203043938E0,7.013042959E0
6.889959583E0,2.192616701E0,1.887814403E0,6.319769859E0,6.950604455E0
6.899979583E0,1.066822886E0,1.173968196E0,6.080458641E0,6.283970853E0
6.909999583E0,-1.204139665E-1,-3.995697200E-1,5.760339260E0,5.775436250E0
6.920018583E0,-3.455674648E-1,-1.076867342E0,5.662269592E0,5.774110934E0
6.930038583E0,6.783633679E-2,3.307201341E-2,5.117198944E0,5.117755422E0
6.940058583E0,9.028651565E-2,-1.605219543E-1,4.763344288E0,4.766903372E0
6.950078583E0,3.881046474E-1,-3.790641725E-1,3.891778469E0,3.929408927E0
6.960097583E0,5.832542181E-1,-1.090749025E0,3.014935493E0,3.258796549E0
6.970117583E0,9.598953128E-1,-1.998611212E0,2.077232361E0,3.038213302E0
6.980137583E0,1.468024373E0,-2.566151857E0,1.201923728E0,3.191371424E0
6.990156583E0,1.837164640E0,-3.034435034E0,4.805628955E-1,3.579652300E0
7.000176583E0,2.095932245E0,-3.067650318E0,2.683268115E-2,3.715391022E0
7.010196583E0,2.192254543E0,-2.970807076E0,-7.517172396E-2,3.692874957E0
7.020216583E0,2.178570271E0,-2.992693186E0,-1.183705926E-1,3.703564840E0
7.030235583E0,2.100719690E0,-3.133278608E0,-2.197463959E-1,3.778722871E0
7.040255583E0,1.916659594E0,-3.448060274E0,-4.781140685E-1,3.973826457E0
7.050275583E0,1.640509009E0,-3.951712370E0,-7.476862073E-1,4.343539470E0
7.060295583E0,1.291913033E0,-4.617530346E0,-9.580866098E-1,4.889637587E0
7.070314583E0,8.953779340E-1,-5.304748535E0,-1.167730570E0,5.505057071E0
7.080334583E0,4.268381298E-1,-6.005906582E0,-1.410953403E0,6.184164791E0
7.090354583E0,-1.330982894E-1,-6.761980057E0,-1.628150702E0,6.956505168E0
7.100374583E0,-5.886034966E-1,-7.349730968E0,-1.757882595E0,7.579917586E0
7.110393583E0,1.991555095E-1,-6.264282227E0,-2.184423447E0,6.637213310E0
7.120413583E0,7.515845895E-1,-3.242839098E0,-2.628506660E0,4.241454005E0
7.130433583E0,1.043115616E0,-3.456366956E-1,-2.796112537E0,3.004296962E0
7.140453583E0,9.778854251E-1,1.144640088E0,-2.490536213E0,2.910194403E0
7.150472583E0,5.527789593E-1,1.148294806E0,-2.035743475E0,2.401748745E0
7.160492583E0,-2.955200970E-1,2.954221517E-2,-1.611375451E0,1.638516315E0
7.170512583E0,-1.235742569E0,-3.314636946E-1,-1.179324389E0,1.740038474E0
7.180532583E0,-2.020553589E0,7.267726064E-1,-8.716027737E-1,2.317439670E0
7.190551583E0,-2.289807081E0,2.704526424E0,-6.430670619E-1,3.601557288E0
7.200571583E0,-2.259669781E0,4.462803364E0,-5.800724030E-1,5.035792428E0
7.210591583E0,-2.050577641E0,5.051226616E0,-6.585257053E-1,5.491212534E0
7.220611583E0,-1.567297578E0,4.392229080E0,-8.660661578E-1,4.743223438E0
7.230630583E0,-9.691892862E-1,3.643206358E0,-9.648681879E-1,3.891433034E0
7.240650583E0,-3.351569772E-1,3.012830973E0,-9.222296476E-1,3.168594040E0
7.250670583E0,2.967623770E-1,2.303960800E0,-7.750691772E-1,2.448884543E0
7.260690583E0,9.145273566E-1,1.517455816E0,-5.620197654E-1,1.858735768E0
7.270709583E0,1.478852630E0,6.312291622E-1,-2.540516555E-1,1.627881322E0
7.280729583E0,2.003136158E0,-2.115457207E-1,7.661706954E-2,2.015732183E0
7.290749583E0,2.512600422E0,-6.474431157E-1,3.006832302E-1,2.612040174E0
7.300769583E0,2.781168461E0,-5.180041790E-1,4.041110873E-1,2.857714490E0
7.310788583E0,2.734918118E0,-7.742881775E-2,3.391019106E-1,2.756948029E0
7.320808583E0,2.468514681E0,4.117435515E-1,2.185313590E-2,2.502713536E0
7.330828583E0,2.051927567E0,8.326102495E-1,-4.495698512E-1,2.259592799E0
7.340847583E0,1.549373388E0,1.114587665E0,-9.210047722E-1,2.119224705E0
7.350867583E0,1.053437829E0,1.171880364E0,-1.259111881E0,2.017026915E0
7.360887583E0,5.421848893E-1,7.557659745E-1,-1.419759631E0,1.697310836E0
7.370907583E0,6.497147679E-2,3.803116456E-2,-1.407371044E0,1.409383169E0
7.380926583E0,-2.409988344E-1,-5.063349605E-1,-1.250657558E0,1.370620246E0
7.390946583E0,-4.324936569E-1,-8.923053741E-1,-1.059056282E0,1.450813514E0
7.400966583E0,-4.984513521E-1,-9.980919957E-1,-9.487828612E-1,1.464523916E0
7.410986583E0,-4.106830657E-1,-8.719856143E-1,-1.015860915E0,1.400354559E0
7.421005583E0,-2.311868221E-1,-7.581275105E-1,-1.253587723E0,1.483134130E0
7.431025583E0,3.184818663E-3,-7.760459781E-1,-1.575544477E0,1.756302337E0
7.441045583E0,2.561837733E-1,-9.408589005E-1,-1.840798974E0,2.083119406E0
7.451065583E0,5.293993354E-1,-1.262802243E0,-1.996735096E0,2.421132835E0
7.461084583E0,7.714197040E-1,-1.589462399E0,-2.029417038E0,2.690727149E0
7.471104583E0,9.251070023E-1,-1.749811649E0,-1.956014514E0,2.782742631E0
7.481124583E0,9.657931924E-1,-1.540871024E0,-1.856251717E0,2.598597783E0
7.491144583E0,8.124427199E-1,-9.253878593E-1,-1.800968766E0,2.181718213E0
7.501163583E0,5.547184944E-1,-2.495964020E-1,-1.761895418E0,1.863943786E0
7.511183583E0,3.844915032E-1,1.682995111E-1,-1.657498598E0,1.709812868E0
7.521203583E0,3.382824659E-1,2.795104384E-1,-1.534609675E0,1.596116527E0
7.531223583E0,3.248558939E-1,1.844039857E-1,-1.443296790E0,1.490852711E0
7.541242583E0,3.043138683E-1,5.595466122E-2,-1.390441060E0,1.424452244E0
7.551262583E0,2.561249137E-1,-2.185517848E-1,-1.366714954E0,1.407577572E0
7.561282583E0,2.346590310E-1,-6.588100791E-1,-1.302966356E0,1.478789000E0
7.571302583E0,9.356731176E-2,-7.295749187E-1,-1.301242352E0,1.494746153E0
7.581321583E0,-1.841940358E-2,-6.957338452E-1,-1.318760633E0,1.491145354E0
7.591341583E0,-1.020646282E-2,-7.782465816E-1,-1.374006152E0,1.579134199E0
7.601361583E0,3.033164144E-2,-1.039621472E0,-1.534511685E0,1.853768844E0
7.611380583E0,5.262934417E-2,-1.344595432E0,-1.755628228E0,2.211998463E0
7.621400583E0,2.414390631E-2,-1.574610829E0,-1.953895450E0,2.509519799E0
7.631420583E0,-6.171378866E-2,-1.649835467E0,-1.994078517E0,2.588844297E0
7.641440583E0,-1.668955982E-1,-1.592105389E0,-1.887262344E0,2.474755112E0
7.651459583E0,-2.726211846E-1,-1.375153422E0,-1.643578768E0,2.160259339E0
7.661479583E0,-2.002798766E-1,-8.641670942E-1,-1.526644349E0,1.765655619E0
7.671499583E0,-6.397311389E-2,-3.571901619E-1,-1.550566554E0,1.592461620E0
7.681519583E0,6.483200192E-2,-4.688022658E-3,-1.576103568E0,1.577443382E0
7.691538583E0,1.475616246E-1,1.832921207E-1,-1.467502356E0,1.486248162E0
7.701558583E0,1.469128728E-1,2.342397273E-1,-1.337423444E0,1.365706085E0
7.711578583E0,1.172581017E-1,2.349781096E-1,-1.318076372E0,1.343982700E0
7.721598583E0,1.542600542E-1,1.143124253E-1,-1.310082436E0,1.324076842E0
7.731617583E0,3.759427965E-1,-2.559374869E-1,-1.207181215E0,1.290009097E0
7.741637583E0,3.631446958E-1,-3.421754241E-1,-1.221112132E0,1.319118240E0
7.751657583E0,2.601250410E-1,-3.029838204E-1,-1.231323361E0,1.294457976E0
7.761677583E0,2.187408507E-1,-3.584066033E-1,-1.191053748E0,1.262898208E0
7.771696583E0,1.579407007E-1,-3.609528244E-1,-1.158293843E0,1.223469180E0
7.781716583E0,9.387356043E-2,-3.237066269E-1,-1.112123966E0,1.162074843E0
7.791736583E0,3.468801081E-2,-3.005093634E-1,-1.212271929E0,1.249444823E0
7.801756583E0,2.152773365E-2,-2.798003554E-1,-1.216817975E0,1.248758450E0
7.811775583E0,1.648052037E-2,-2.335038483E-1,-1.182426929E0,1.205375086E0
7.821795583E0,4.075337201E-2,-1.856676191E-1,-1.220227599E0,1.234944815E0
7.831815583E0,7.525513321E-2,-1.490219235E-1,-1.209198833E0,1.220668950E0
7.841834583E0,1.172047108E-1,-9.803304076E-2,-1.189277053E0,1.199052680E0
7.851854583E0,1.863063276E-1,-6.244435161E-2,-1.201202393E0,1.217167422E0
7.861874583E0,2.656091452E-1,-3.151013330E-2,-1.191684008E0,1.221332011E0
7.871894583E0,3.125106692E-1,3.825479746E-2,-1.155462861E0,1.197589567E0
7.881913583E0,3.114419281E-1,7.648846507E-2,-1.112778544E0,1.158068499E0
7.891933583E0,2.443019003E-1,2.436156943E-2,-1.094645858E0,1.121840656E0
7.901953583E0,1.376092732E-1,-4.298391566E-2,-1.119369268E0,1.128614854E0
7.911973583E0,-1.449590828E-2,-6.975810230E-2,-1.178088427E0,1.180240935E0
7.921992583E0,-1.297242194E-1,-4.793110490E-2,-1.235195398E0,1.242913286E0
7.932012583E0,-1.264440268E-1,1.142698340E-2,-1.266580343E0,1.272927505E0
7.942032583E0,1.852008514E-2,1.066014320E-1,-1.289482474E0,1.294013876E0
7.952052583E0,2.476930767E-1,2.269585729E-1,-1.297987819E0,1.340758901E0
7.962071583E0,5.007886887E-1,3.224848211E-1,-1.318431020E0,1.446736370E0
7.972091583E0,6.947373748E-1,3.374907374E-1,-1.351377606E0,1.556528655E0
7.982111583E0,7.625616789E-1,2.526378930E-1,-1.396707535E0,1.611247392E0
7.992131583E0,7.014338970E-1,1.505031139E-1,-1.436553121E0,1.605722755E0
8.002150583E0,5.713070631E-1,1.026975140E-1,-1.473451018E0,1.583665509E0
8.012170583E0,4.581431448E-1,6.196704879E-2,-1.474983573E0,1.545739822E0
8.022190583E0,3.815389276E-1,-2.552258782E-2,-1.442203760E0,1.492037212E0
8.032210583E0,3.179305494E-1,-1.558107883E-1,-1.387591600E0,1.432050029E0
8.042229583E0,2.682476938E-1,-3.086663783E-1,-1.336395979E0,1.397564299E0
8.052249583E0,2.170842737E-1,-4.043293595E-1,-1.283917904E0,1.363470937E0
8.062269583E0,1.919301748E-1,-4.292970002E-1,-1.206997514E0,1.295367170E0
8.072289583E0,2.027373612E-1,-4.351082742E-1,-1.122102022E0,1.220464910E0
8.082308583E0,1.985527426E-1,-3.942622840E-1,-1.066985488E0,1.154696485E0
8.092328583E0,1.627886146E-1,-2.948323786E-1,-1.057260036E0,1.109605808E0
8.102348583E0,1.235770211E-1,-1.800743937E-1,-1.097325683E0,1.118848391E0
8.112367583E0,1.395529509E-1,-1.263230890E-1,-1.138993502E0,1.154443046E0
8.122387583E0,1.887607127E-1,-1.821991354E-1,-1.171408653E0,1.200427159E0
8.132407583E0,2.412651926E-1,-2.869756222E-1,-1.182277083E0,1.240299562E0
8.142427583E0,2.367362231E-1,-4.294390082E-1,-1.173666239E0,1.271988342E0
8.152446583E0,2.016413957E-1,-6.147188544E-1,-1.173842430E0,1.340315102E0
8.162466583E0,1.774313897E-1,-7.594525814E-1,-1.136045218E0,1.377987249E0
8.172486583E0,1.852924079E-1,-8.911980987E-1,-1.068964958E0,1.404013322E0
8.182506583E0,1.976279020E-1,-9.802174568E-1,-1.015481234E0,1.425161460E0
8.192525583E0,1.952786744E-1,-1.021976471E0,-9.932339191E-1,1.438430842E0
8.202545583E0,1.728495359E-1,-1.041599154E0,-1.012338638E0,1.462749220E0
8.212565583E0,1.148219407E-1,-1.013616443E0,-1.068663001E0,1.477377061E0
8.222585583E0,5.520415306E-2,-9.513159990E-1,-1.133057237E0,1.480495974E0
8.232604583E0,3.646214306E-2,-8.876547813E-1,-1.182085395E0,1.478711053E0
8.242624583E0,5.297027901E-2,-7.957842350E-1,-1.184327483E0,1.427834019E0
8.252644583E0,9.952365607E-2,-7.000064254E-1,-1.181449056E0,1.376857227E0
8.262664583E0,1.723155677E-1,-6.081455350E-1,-1.179738283E0,1.338400562E0
8.272683583E0,2.125294507E-1,-5.145909786E-1,-1.146906734E0,1.274899093E0
8.282703583E0,2.280040085E-1,-4.535840750E-1,-1.107439399E0,1.218255459E0
8.292723583E0,2.506507039E-1,-4.173346758E-1,-1.084168315E0,1.188450648E0
8.302743583E0,2.800892889E-1,-3.924104273E-1,-1.081824780E0,1.184390479E0
8.312762583E0,2.732889950E-1,-3.685044050E-1,-1.072555304E0,1.166557864E0
8.322782583E0,2.229682952E-1,-3.421156704E-1,-1.076118350E0,1.150994655E0
8.332802583E0,1.643967927E-1,-3.193558455E-1,-1.074203014E0,1.132663488E0
8.342822583E0,1.530131102E-1,-3.432680964E-1,-1.068824291E0,1.132974564E0
8.352841583E0,1.850867271E-1,-3.376424313E-1,-1.053755283E0,1.121900042E0
8.362861583E0,2.249438614E-1,-2.839176953E-1,-1.023061037E0,1.085293916E0
8.372881583E0,2.546315193E-1,-2.414473742E-1,-1.001464725E0,1.061162400E0
8.382900583E0,2.707071304E-1,-2.226289362E-1,-9.744260311E-1,1.035544342E0
8.392920583E0,2.870727181E-1,-2.388214320E-1,-9.588130713E-1,1.028964979E0
8.402940583E0,2.822566628E-1,-2.813433409E-1,-9.482962489E-1,1.028634374E0
8.412960583E0,2.640578449E-1,-3.018136919E-1,-9.286082387E-1,1.011499536E0
8.422979583E0,2.715599835E-1,-2.803680599E-1,-9.096078873E-1,9.898169438E-1
8.432999583E0,3.004781306E-1,-2.628840804E-1,-8.927632570E-1,9.779679851E-1
8.443019583E0,2.918036580E-1,-2.649996877E-1,-8.758657575E-1,9.604764622E-1
8.453039583E0,2.528295517E-1,-2.967619896E-1,-8.726666570E-1,9.557915855E-1
8.463058583E0,1.838387847E-1,-3.544231653E-1,-8.704605103E-1,9.576606804E-1
8.473078583E0,9.871362150E-2,-4.150828719E-1,-8.648837209E-1,9.643972316E-1
8.483098583E0,3.171141446E-2,-4.638568163E-1,-8.622103930E-1,9.795792574E-1
8.493118583E0,2.704055049E-2,-4.736871421E-1,-8.582508564E-1,9.806657088E-1
8.503137583E0,2.893219329E-2,-4.020952582E-1,-8.355061412E-1,9.276789210E-1
8.513157583E0,-6.686265767E-2,-2.808946669E-1,-7.719425559E-1,8.241770068E-1
8.523177583E0,6.823231280E-2,-4.528294206E-1,-6.956379414E-1,8.328398874E-1
8.533197583E0,2.214850038E-1,-5.579077601E-1,-6.410036087E-1,8.781812467E-1
8.543216583E0,2.456774265E-1,-4.991238415E-1,-6.201659441E-1,8.331193223E-1
8.553236583E0,1.493257284E-1,-3.746822774E-1,-6.028175354E-1,7.253095637E-1
8.573206167E0,-3.039408922E-1,-3.632945120E-1,1.997531056E-1,5.140664078E-1
8.583226167E0,-3.999575973E-1,-4.549494386E-1,1.828607023E-1,6.327583328E-1
8.593246167E0,-4.806902707E-1,-5.189619660E-1,1.780590117E-1,7.294447684E-1
8.603265167E0,-5.502706766E-1,-5.440430641E-1,2.016852051E-1,7.996609251E-1
8.613285167E0,-5.977801085E-1,-5.427327752E-1,2.388384342E-1,8.419879578E-1
8.623305167E0,-6.415662169E-1,-5.329396129E-1,2.879199386E-1,8.823433191E-1
8.633324167E0,-7.065846324E-1,-5.180048943E-1,3.284686804E-1,9.356722648E-1
8.643344167E0,-7.921050191E-1,-5.518739820E-1,3.021145761E-1,1.011567334E0
8.653364167E0,-8.913186789E-1,-6.211001873E-1,2.383883297E-1,1.112224539E0
8.663383167E0,-9.866317511E-1,-6.918437481E-1,1.712003052E-1,1.217127573E0
8.673403167E0,-1.049614191E0,-7.839457393E-1,1.032305732E-1,1.314122302E0
8.683423167E0,-1.077820182E0,-8.913578987E-1,4.423869774E-2,1.399347101E0
8.693443167E0,-1.074962616E0,-9.506875277E-1,2.944217250E-2,1.435346036E0
8.703461958E0,-9.755170345E-1,-1.001264215E0,1.376779079E-1,1.404677443E0
8.713481958E0,-8.157542944E-1,-9.937117696E-1,2.953064144E-1,1.319137608E0
8.723501958E0,-6.387545466E-1,-9.446623325E-1,4.804545939E-1,1.237429154E0
8.733520958E0,-5.150850415E-1,-7.992287278E-1,6.511567831E-1,1.152425406E0
8.743540958E0,-4.916944504E-1,-6.169804335E-1,7.863492370E-1,1.113900090E0
8.753560958E0,-5.204097629E-1,-4.727351069E-1,8.582175970E-1,1.109433300E0
8.763579958E0,-5.762573481E-1,-3.224330544E-1,8.594555259E-1,1.083835507E0
8.773599958E0,-6.325936317E-1,-1.082986519E-1,8.075278401E-1,1.031505944E0
8.783619958E0,-6.802120805E-1,2.035977691E-1,7.246296406E-1,1.014509065E0
8.793638958E0,-7.184524536E-1,5.062026381E-1,6.637159586E-1,1.101332789E0
8.803658958E0,-7.652427554E-1,6.149691343E-1,6.598661542E-1,1.182880743E0
8.813678958E0,-8.022739887E-1,5.139027238E-1,7.089410424E-1,1.187576088E0
8.823697958E0,-8.701465726E-1,3.587432504E-1,7.499415874E-1,1.203438475E0
8.833717958E0,-9.024081230E-1,-1.309636608E-2,8.056197762E-1,1.209766572E0
8.843737958E0,-8.767586946E-1,-4.767294228E-1,8.998275995E-1,1.343750892E0
8.853756958E0,-8.275237679E-1,-7.227890491E-1,9.544327855E-1,1.455390511E0
8.863776958E0,-7.630785704E-1,-7.735290527E-1,9.327964783E-1,1.432042377E0
8.873796958E0,-6.812108755E-1,-6.780954599E-1,8.656147718E-1,1.293503244E0
8.883816958E0,-6.372780204E-1,-5.871226788E-1,7.095025182E-1,1.119924166E0
8.893835958E0,-5.391133428E-1,-5.372440815E-1,5.153721571E-1,9.191750974E-1
8.903855958E0,-4.477265477E-1,-3.158455193E-1,4.802031517E-1,7.285688166E-1
8.913875958E0,-4.260534644E-1,-6.016873568E-2,5.330455303E-1,6.850396840E-1
8.923894958E0,-4.437136352E-1,3.428362310E-2,5.966621041E-1,7.443539638E-1
8.933914958E0,-4.721479416E-1,4.644015431E-2,6.315113902E-1,7.898651800E-1
8.943934958E0,-4.515549242E-1,2.240881324E-1,6.444938183E-1,8.182234551E-1
8.953953958E0,-3.985204697E-1,4.493055642E-1,5.564739108E-1,8.187534844E-1
8.963973958E0,-4.123450220E-1,5.028706193E-1,4.270248413E-1,7.779829638E-1
8.973993958E0,-4.950659871E-1,3.011873066E-1,3.510510027E-1,6.775255949E-1
8.984012958E0,-5.516472459E-1,-3.360959888E-2,2.689609230E-1,6.146415761E-1
8.994032958E0,-5.428359509E-1,-3.330719173E-1,1.918211281E-1,6.651339089E-1
9.004052958E0,-5.235509276E-1,-4.853200614E-1,1.318829507E-1,7.259712450E-1
9.014072958E0,-5.086976886E-1,-4.765617251E-1,1.045152396E-1,7.048459772E-1
9.024091958E0,-5.024180412E-1,-4.159537256E-1,9.235980362E-2,6.587653021E-1
9.034111958E0,-4.799888730E-1,-3.659840524E-1,9.887948632E-2,6.116459741E-1
9.044131958E0,-4.243061244E-1,-3.894103169E-1,1.646666676E-1,5.989918143E-1
9.054150958E0,-2.673940063E-1,-3.677574694E-1,1.707336158E-1,4.856903112E-1
9.064170958E0,-4.017106444E-2,-2.126749158E-1,1.505319774E-1,2.636365120E-1
9.074190958E0,1.462922841E-1,-1.837148145E-2,1.178272963E-1,1.887384843E-1
9.084209958E0,2.347583324E-1,5.513156578E-2,6.988859177E-2,2.510684756E-1
9.094229958E0,2.272972167E-1,8.761920035E-2,-1.416216139E-3,2.436045045E-1
9.104249958E0,1.479881853E-1,9.580969065E-2,-9.855454415E-2,2.019727654E-1
9.114268958E0,3.184960037E-2,2.786046267E-2,-1.788536459E-1,1.837912650E-1
9.124288958E0,-8.348701894E-2,-7.772725075E-2,-2.268840522E-1,2.539448384E-1
9.134308958E0,-1.746691167E-1,-1.834427565E-1,-2.394997030E-1,3.485981254E-1
9.144327958E0,-2.001572549E-1,-2.424319237E-1,-2.171099931E-1,3.820640175E-1
9.154347958E0,-1.654179245E-1,-1.992490441E-1,-1.761971861E-1,3.132231149E-1
9.164367958E0,-1.078897491E-1,-8.395232260E-2,-1.376118958E-1,1.939722256E-1
9.174387958E0,-1.080561951E-1,7.271105796E-2,-1.274040043E-1,1.821944554E-1
9.184406958E0,-2.965624928E-1,-8.936824277E-3,-1.924253106E-1,3.536335379E-1
9.194426958E0,-6.489253640E-1,-4.151546359E-1,-3.487238586E-1,8.456156511E-1
9.204446958E0,-6.210566759E-1,-3.183043301E-1,-2.652912140E-1,7.465979303E-1
9.214465958E0,-5.830594897E-1,-3.382556736E-1,-2.445214987E-1,7.170537167E-1
9.224485958E0,-5.028017759E-1,-5.583640337E-1,-3.100846410E-1,8.128545409E-1
9.234505958E0,-4.388281405E-1,-7.055260539E-1,-4.091491699E-1,9.261426418E-1
9.244524958E0,-3.611995578E-1,-7.068429589E-1,-5.199067593E-1,9.488915257E-1
9.254544958E0,-2.550891042E-1,-6.072694659E-1,-5.964193940E-1,8.885734347E-1
9.264564958E0,-1.388953626E-1,-4.530866146E-1,-6.397500038E-1,7.961529184E-1
9.274583958E0,-5.569555610E-2,-2.284806520E-1,-6.252371073E-1,6.680021284E-1
9.284603958E0,-6.578046829E-2,-8.578525484E-2,-5.646444559E-1,5.748995926E-1
9.294623958E0,-1.086565629E-1,-8.826998621E-2,-5.246126056E-1,5.429698196E-1
9.304642958E0,-2.007195503E-1,-2.069415450E-1,-4.658183157E-1,5.478136948E-1
9.314662958E0,-2.733010650E-1,-3.436794281E-1,-3.741168678E-1,5.768643274E-1
9.324682958E0,-2.730158865E-1,-3.334243596E-1,-2.881808877E-1,5.184184621E-1
9.334701958E0,-2.215484679E-1,-2.167949528E-1,-2.138882577E-1,3.766058443E-1
9.344721958E0,-1.763549447E-1,-1.367765367E-1,-1.347322911E-1,2.606946064E-1
9.354741958E0,-1.793049276E-1,-4.848794639E-2,-7.732012123E-2,2.011957732E-1
9.364761958E0,-1.738549024E-1,8.750489354E-2,-4.128628969E-2,1.989653015E-1
9.374780958E0,-1.334158778E-1,2.281280607E-1,-2.289476618E-2,2.652666184E-1
9.384800958E0,-1.942974180E-1,2.299070060E-1,1.984797418E-2,3.016664717E-1
9.394820958E0,-3.230926692E-1,1.882674098E-1,5.618414283E-2,3.781403819E-1
9.404839958E0,-3.936425745E-1,1.399427950E-1,6.006306782E-2,4.220734942E-1
9.414859958E0,-3.194402456E-1,1.055723056E-1,1.145904511E-2,3.366287153E-1
9.424879958E0,-1.280075163E-1,1.155353859E-1,1.150905527E-2,1.728201608E-1
9.434898958E0,7.711286843E-2,1.188941672E-1,5.100160092E-2,1.506100288E-1
9.444918958E0,1.789323539E-1,3.184292093E-2,1.038579196E-1,2.093256466E-1
9.454938958E0,1.505545080E-1,-1.720468253E-1,1.349649727E-1,2.654850539E-1
9.464957958E0,2.243092284E-2,-4.534990788E-1,1.346513629E-1,4.735985117E-1
9.474977958E0,-1.395233721E-1,-6.265212297E-1,1.923407465E-1,6.700675977E-1
9.484997958E0,-2.581257522E-1,-6.383877993E-1,2.725484073E-1,7.405744531E-1
9.495016958E0,-3.963747025E-1,-5.392292738E-1,2.881270945E-1,7.286277081E-1
9.505036958E0,-5.101974607E-1,-4.077913165E-1,2.490752786E-1,6.990233910E-1
9.515056958E0,-6.448335648E-1,-3.105626702E-1,2.298273295E-1,7.517180986E-1
9.525075958E0,-7.977330685E-1,-2.234924883E-1,2.396494299E-1,8.624145118E-1
9.535095958E0,-9.125190377E-1,-3.361556530E-1,2.701061368E-1,1.009281399E0
9.545115958E0,-9.165872335E-1,-6.434010267E-1,2.920337617E-1,1.157316187E0
9.555134958E0,-8.083832860E-1,-9.292418361E-1,2.050075233E-1,1.248600021E0
9.565154958E0,-6.328124404E-1,-1.031301856E0,1.775736362E-1,1.222933972E0
9.575174958E0,-4.481350183E-1,-1.206076026E0,2.438719720E-1,1.309548744E0
9.585194958E0,-3.426861167E-1,-1.513442755E0,3.044399619E-1,1.581336914E0
9.595213958E0,-4.262278974E-1,-1.473500967E0,2.808592618E-1,1.559409262E0
9.605233958E0,-6.678458452E-1,-9.212464690E-1,2.471412718E-1,1.164384789E0
9.615253958E0,-9.918995500E-1,1.315048039E-1,2.142930329E-1,1.023269141E0
9.625272958E0,-1.238077283E0,1.079524636E0,3.026032448E-1,1.670262711E0
9.635292958E0,-1.271574736E0,1.461409688E0,5.243849158E-1,2.006888169E0
9.645312958E0,-1.168795705E0,1.412579298E0,7.393249273E-1,1.976882652E0
9.655331958E0,-1.032862544E0,1.066854119E0,8.840109706E-1,1.728137189E0
9.665351958E0,-8.287497759E-1,5.949347615E-1,8.378171921E-1,1.320117877E0
9.675371958E0,-6.473560333E-1,2.563748658E-1,6.742053628E-1,9.692011024E-1
9.685390958E0,-5.839194655E-1,1.563977152E-1,4.686321318E-1,7.648779396E-1
9.695410958E0,-6.083244085E-1,2.923816442E-1,3.291330934E-1,7.509155778E-1
9.705430958E0,-6.596897244E-1,3.858013749E-1,3.499838114E-1,8.405485719E-1
9.715449958E0,-6.866904497E-1,2.982390523E-1,4.294685125E-1,8.630953072E-1
9.725469958E0,-7.051030993E-1,1.866509467E-1,5.021229982E-1,8.855148005E-1
9.735489958E0,-7.166585326E-1,2.140924335E-1,5.364279747E-1,9.204292447E-1
9.745509958E0,-7.319226265E-1,3.847104907E-1,5.210894942E-1,9.773674610E-1
9.755528958E0,-7.043722272E-1,5.564936996E-1,5.513249040E-1,1.053463156E0
9.765548958E0,-6.835433245E-1,6.183328629E-1,5.843212605E-1,1.091328704E0
9.775568958E0,-6.453874111E-1,4.805926085E-1,5.624750853E-1,9.817700277E-1
9.785587958E0,-6.401512027E-1,1.817253083E-1,4.447575510E-1,8.003917348E-1
9.795607958E0,-6.672666669E-1,-1.568476856E-1,2.000497729E-1,7.140489569E-1
9.805627958E0,-7.345058918E-1,-2.492137402E-1,-3.007300198E-2,7.762156781E-1
9.815646958E0,-8.778867722E-1,-6.877525896E-2,-1.853672415E-1,8.998756776E-1
9.825666958E0,-1.040332675E0,1.164814904E-1,-2.287277132E-1,1.071529924E0
9.835686958E0,-9.747333527E-1,-2.301752716E-1,-1.335348785E-1,1.010404537E0
9.845705958E0,-7.562885284E-1,-8.317571282E-1,-2.420678549E-2,1.124445742E0
9.855725958E0,-6.785825491E-1,-8.146764040E-1,3.268232942E-2,1.060773328E0
9.865745958E0,-6.511214375E-1,-6.456845403E-1,-1.169073489E-2,9.170628797E-1
9.875764958E0,-5.868668556E-1,-4.277942777E-1,-1.544087380E-1,7.424706786E-1
9.885784958E0,-5.035563111E-1,-1.328227967E-1,-3.332031071E-1,6.182516999E-1
9.895804958E0,-4.527695775E-1,2.016737014E-1,-4.666575789E-1,6.807656485E-1
9.905823958E0,-4.248765707E-1,4.914749563E-1,-5.458178520E-1,8.485192164E-1
9.915843958E0,-3.373983800E-1,4.984329939E-1,-5.588923693E-1,8.213609418E-1
9.925863958E0,-1.033361405E-1,1.974898577E-1,-5.294811726E-1,5.744831711E-1
9.935883958E0,1.819925457E-1,-1.199235171E-1,-4.454086721E-1,4.958748046E-1
9.945902958E0,4.658889472E-1,-3.170303702E-1,-3.300533891E-1,6.530666172E-1
9.955922958E0,6.924076080E-1,-5.338782668E-1,-2.663694918E-1,9.140060206E-1
9.965942958E0,7.998768091E-1,-6.612120867E-1,-2.253663093E-1,1.061976604E0
9.975961958E0,7.975337505E-1,-7.920886278E-1,-1.939093173E-1,1.140642495E0
9.985981958E0,6.916689277E-1,-8.559682965E-1,-1.834204495E-1,1.115674994E0
9.996001958E0,4.572226703E-1,-6.792885661E-1,-1.921116710E-1,8.410662402E-1
1.000602096E1,2.224824578E-1,-4.176281691E-1,-2.118185461E-1,5.184388373E-1
1.001604096E1,3.846627101E-2,-3.024376631E-1,-1.979962140E-1,3.635253703E-1
1.002606096E1,-1.456965506E-1,-2.487233430E-1,-1.942686141E-1,3.476076533E-1
1.003607996E1,-3.083462119E-1,-1.800265610E-1,-2.105895281E-1,4.145297316E-1
1.004609996E1,-4.206957221E-1,-2.210222930E-2,-2.440475523E-1,4.868599459E-1
1.005611996E1,-4.437421858E-1,5.113017187E-2,-2.697973847E-1,5.218352717E-1
1.006613896E1,-4.473940134E-1,1.094914153E-1,-2.398920059E-1,5.193245110E-1
1.007615896E1,-4.370747805E-1,3.010989428E-1,-1.615359485E-1,5.547871661E-1
1.008617896E1,-3.688998818E-1,4.043308198E-1,-1.007357910E-1,5.565233457E-1
1.009619796E1,-3.062442243E-1,5.092913508E-1,-5.156132206E-2,5.965079839E-1
1.010621796E1,-2.560060620E-1,6.734485626E-1,2.275062958E-3,7.204701564E-1
1.011623796E1,-1.944606751E-1,8.044241667E-1,-1.776602305E-2,8.277854950E-1
1.012625796E1,-1.096310765E-1,8.584397435E-1,-6.656374782E-2,8.679680286E-1
1.013627696E1,-5.772767216E-2,8.693536520E-1,-1.539990604E-1,8.847733987E-1
1.014629696E1,4.726292565E-2,8.095352650E-1,-2.570921183E-1,8.506923572E-1
1.015631696E1,1.849763244E-1,6.771822572E-1,-2.864148319E-1,7.581724777E-1
1.016633596E1,3.255077899E-1,5.719469786E-1,-2.440015376E-1,7.018656694E-1
1.017635596E1,4.464203715E-1,6.363219619E-1,-1.191805005E-1,7.863846254E-1
1.018637596E1,5.483620763E-1,6.854692101E-1,3.490712261E-3,8.778275399E-1
1.019639496E1,5.661416054E-1,7.776827216E-1,5.795315653E-2,9.636728185E-1
1.020641496E1,5.874728560E-1,7.526296973E-1,6.431502849E-2,9.569285453E-1
1.021643496E1,5.993319154E-1,6.219260097E-1,4.391281679E-2,8.648231274E-1
1.022645396E1,5.545018315E-1,3.756492734E-1,3.510391340E-2,6.706839364E-1
1.023647396E1,4.692263603E-1,9.911513329E-2,9.687769227E-3,4.796780584E-1
1.024649396E1,3.508588672E-1,-1.461702287E-1,-1.855673734E-3,3.800935726E-1
1.025651296E1,1.874100268E-1,-3.700059652E-1,-4.761448596E-3,4.147886255E-1
1.026653296E1,-5.954809487E-3,-5.888370872E-1,2.697670087E-2,5.894847898E-1
1.027655296E1,-2.402210981E-1,-6.529651880E-1,7.423236966E-2,6.997000482E-1
1.028657196E1,-4.753465652E-1,-4.455103576E-1,1.369114518E-1,6.657165925E-1
1.029659196E1,-6.375626326E-1,-4.658377469E-1,1.843862832E-1,8.108570887E-1
1.030661196E1,-7.231923342E-1,-5.839236379E-1,1.612313092E-1,9.433819492E-1
1.031663096E1,-7.502212524E-1,-6.238862276E-1,1.126320884E-1,9.822178679E-1
1.032665096E1,-7.005594969E-1,-7.266458869E-1,3.728254512E-2,1.010043485E0
1.033667096E1,-5.915355086E-1,-8.614300489E-1,-2.950527333E-2,1.045393011E0
1.034669096E1,-5.100741386E-1,-8.715720773E-1,-9.018853307E-2,1.013877450E0
1.035670996E1,-4.449444413E-1,-8.824154139E-1,-1.065129116E-1,9.939705825E-1
1.036672996E1,-4.497735202E-1,-7.804104686E-1,-7.080582529E-2,9.035209925E-1
1.037674996E1,-4.928703606E-1,-5.719584227E-1,-8.402103558E-3,7.550683578E-1
1.038676896E1,-5.109114647E-1,-4.232689738E-1,2.433275804E-2,6.639120665E-1
1.039678896E1,-5.389342904E-1,-3.276265860E-1,4.219484702E-2,6.321153014E-1
1.040680896E1,-5.244811177E-1,-2.336943299E-1,8.817058057E-2,5.809195589E-1
1.041682796E1,-4.647503793E-1,-1.467796713E-1,1.241293848E-1,5.029366671E-1
1.042684796E1,-3.830674887E-1,-8.254822344E-2,1.200510710E-1,4.098379799E-1
1.043686796E1,-3.366395235E-1,1.285792049E-2,8.640708774E-2,3.477897062E-1
1.044688696E1,-3.300869167E-1,8.067268878E-2,3.039498441E-2,3.411587759E-1
1.045690696E1,-3.635098338E-1,1.680240929E-1,-9.273865260E-3,4.005714664E-1
1.046692696E1,-4.334408343E-1,2.978483438E-1,-3.557695076E-2,5.271150844E-1
1.047694596E1,-4.523405135E-1,2.990904450E-1,-3.534046188E-2,5.434298323E-1
1.048696596E1,-4.095856249E-1,2.965870798E-1,-9.561909363E-3,5.057822754E-1
1.049698596E1,-3.249692619E-1,3.562069833E-1,3.743249550E-2,4.836213683E-1
1.050700496E1,-2.164241672E-1,4.275012612E-1,3.399337456E-2,4.803668369E-1
1.051702496E1,-9.225108474E-2,4.595574737E-1,-1.483728085E-2,4.689599974E-1
1.052704496E1,1.903216913E-2,4.823497236E-1,-5.800771713E-2,4.861978759E-1
1.053706396E1,5.716623738E-2,6.013000607E-1,-8.839544654E-2,6.104453266E-1
1.054708396E1,6.843122840E-2,7.025561929E-1,-1.168952137E-1,7.154946039E-1
1.055710396E1,7.331679761E-2,7.135217786E-1,-1.560173184E-1,7.340504649E-1
1.056712396E1,2.689274400E-2,8.031136990E-1,-2.771628797E-1,8.500200557E-1
1.057714296E1,1.041257102E-2,8.379332423E-1,-2.682482004E-1,8.798850137E-1
1.058716296E1,-1.208664477E-2,9.566668868E-1,-2.292271405E-1,9.838204619E-1
1.059718296E1,-3.149390221E-2,1.032315850E0,-2.019553035E-1,1.052356320E0
1.060720196E1,-4.616823792E-2,9.961890578E-1,-1.910330802E-1,1.015390458E0
1.061722196E1,-7.642094791E-2,8.842931390E-1,-1.700833142E-1,9.037382645E-1
1.062724196E1,-1.264971644E-1,8.527621031E-1,-1.637572497E-1,8.775085036E-1
1.063726096E1,-1.699170768E-1,8.718633652E-1,-1.233701408E-1,8.967930264E-1
1.064728096E1,-1.417536438E-1,8.138429523E-1,-7.771988213E-2,8.297438319E-1
1.065730096E1,-9.940139949E-2,6.349909306E-1,-4.576301575E-2,6.443511261E-1
1.066731996E1,-5.319649354E-2,5.293129086E-1,-2.836882323E-2,5.327352178E-1
1.067733996E1,1.784812286E-2,4.312736690E-1,-1.074855123E-2,4.317766372E-1
1.068735996E1,1.228927374E-1,3.280670643E-1,-2.672166564E-2,3.513469382E-1
1.069737896E1,2.171838284E-1,1.255909055E-1,-7.553420961E-2,2.620063123E-1
1.070739954E1,2.996882498E-1,-1.203910783E-1,-1.148699969E-1,3.427859026E-1
1.071741954E1,3.340640664E-1,-3.107455671E-1,-1.076115444E-1,4.687663090E-1
1.072743854E1,3.141356409E-1,-4.273663461E-1,-7.932043076E-2,5.362974225E-1
1.073745854E1,2.832475007E-1,-5.244356394E-1,-5.186377838E-2,5.982906802E-1
1.074747854E1,2.578685880E-1,-6.088773012E-1,-9.977363050E-3,6.613072844E-1
1.075749754E1,2.187304944E-1,-7.198333740E-1,2.711674199E-2,7.528203193E-1
1.076751754E1,2.051760405E-1,-9.971652627E-1,-4.230884369E-3,1.018063686E0
1.077753754E1,1.614306867E-1,-1.342154860E0,-7.024345547E-2,1.353651979E0
1.078755754E1,8.237310499E-2,-1.428408265E0,1.255700272E-2,1.430836531E0
1.079757654E1,-3.660468385E-2,-1.438981056E0,1.005031019E-1,1.442950885E0
1.080759654E1,-1.754005253E-1,-1.411290884E0,9.140052646E-2,1.425082931E0
1.081761654E1,-3.371116817E-1,-1.285772085E0,9.188655019E-2,1.332402822E0
1.082763554E1,-5.424675941E-1,-1.049143553E0,1.124596298E-1,1.186431816E0
1.083765554E1,-7.400792241E-1,-7.331196070E-1,1.447890699E-1,1.051734515E0
1.084767554E1,-8.185311556E-1,-2.875610292E-1,2.951669991E-1,9.164104733E-1
1.085769454E1,-8.413555026E-1,1.158303693E-1,3.322067857E-1,9.119523588E-1
1.086771454E1,-9.006509185E-1,1.936070919E-1,3.113849759E-1,9.724280879E-1
1.087773454E1,-9.892678857E-1,1.283864491E-2,3.038679361E-1,1.034964494E0
1.088775354E1,-1.042044878E0,-1.676456779E-1,2.237770408E-1,1.078906282E0
1.089777354E1,-1.106110930E0,-3.771640062E-1,1.544184685E-1,1.178804115E0
1.090779354E1,-1.172695756E0,-4.664885700E-1,8.920399845E-2,1.265221038E0
1.091781254E1,-1.153524399E0,-4.324586987E-1,2.303349972E-2,1.232140255E0
1.092783254E1,-1.010357857E0,-1.405115277E-1,4.867531359E-2,1.021242270E0
1.093785254E1,-6.706381440E-1,3.265872002E-1,9.780929983E-2,7.523173391E-1
1.094787154E1,-3.678615987E-1,5.323183537E-1,2.836176939E-2,6.476799946E-1
1.095789154E1,-1.321178079E-1,5.232135653E-1,-9.462806582E-2,5.478704418E-1
1.096791154E1,5.619715899E-2,3.534621000E-1,-1.956771612E-1,4.079008804E-1
1.097793054E1,2.579267919E-1,1.646184325E-1,-2.027739435E-1,3.670731950E-1
1.098795054E1,4.479101896E-1,6.826032698E-2,-1.118398458E-1,4.666810060E-1
1.099797054E1,5.862249732E-1,1.363485605E-1,1.266734209E-3,6.018739517E-1
1.100799054E1,6.468591094E-1,2.779867947E-1,9.751038253E-2,7.107824141E-1
1.101800954E1,6.266574264E-1,3.318699896E-1,1.433955729E-1,7.234635515E-1
1.102802954E1,5.112250447E-1,3.113467395E-1,1.353678703E-1,6.136874603E-1
1.103804954E1,3.489440084E-1,3.046880364E-1,8.022178710E-2,4.701406764E-1
1.104806854E1,1.737110615E-1,3.628278971E-1,-1.782920957E-2,4.026630061E-1
1.105808854E1,-1.830258965E-2,3.895322084E-1,-1.355720907E-1,4.128560500E-1
1.106810854E1,-2.326872051E-1,3.589697778E-1,-2.267452478E-1,4.841653067E-1
1.107812754E1,-4.570239186E-1,4.014626443E-1,-2.614385486E-1,6.621127032E-1
1.108814754E1,-6.913751364E-1,4.847209156E-1,-2.772935927E-1,8.887326267E-1
1.109816754E1,-8.966435790E-1,4.942217171E-1,-3.011379540E-1,1.067196739E0
1.110818654E1,-1.080786228E0,4.981056154E-1,-3.195578754E-1,1.232203437E0
1.111820654E1,-1.266381145E0,5.858684182E-1,-3.671352565E-1,1.442827538E0
1.112822654E1,-1.424160600E0,6.859804392E-1,-4.289463758E-1,1.637924775E0
1.113824554E1,-1.570622683E0,6.931699514E-1,-4.952622652E-1,1.786791791E0
1.114826554E1,-1.655722380E0,7.114030123E-1,-5.056964159E-1,1.871694342E0
1.115828554E1,-1.689559698E0,6.902087927E-1,-4.736242294E-1,1.885555637E0
1.116830454E1,-1.692180634E0,6.053383946E-1,-4.183692038E-1,1.845248671E0
1.117832454E1,-1.653262258E0,5.445002913E-1,-3.467818499E-1,1.774827967E0
1.118834454E1,-1.577383757E0,4.997713268E-1,-2.624795139E-1,1.675352617E0
1.119836354E1,-1.449478507E0,4.991617203E-1,-1.715996712E-1,1.542594183E0
1.120838354E1,-1.303419948E0,5.256379843E-1,-1.011275500E-1,1.409051323E0
1.121840354E1,-1.097030878E0,5.910779834E-1,-8.099725097E-2,1.248763582E0
1.122842254E1,-8.668426871E-1,6.401138902E-1,-1.052625626E-1,1.082701364E0
1.123844254E1,-6.320922375E-1,6.262830496E-1,-1.740624160E-1,9.066800866E-1
1.124846254E1,-3.965835869E-1,5.628477335E-1,-2.597248852E-1,7.358893453E-1
1.125848154E1,-1.821951270E-1,4.849207103E-1,-3.433055282E-1,6.214514022E-1
1.126850154E1,-1.437845640E-3,4.202876091E-1,-3.331342340E-1,5.363041670E-1
1.127852154E1,9.958942980E-2,3.479683995E-1,-2.951689959E-1,4.670383257E-1
1.128854154E1,1.505189538E-1,1.966303140E-1,-3.046744764E-1,3.926142794E-1
1.129856054E1,2.068573236E-1,9.535109997E-2,-2.885176241E-1,3.675924429E-1
1.130858054E1,2.423228323E-1,2.507800981E-2,-2.625550926E-1,3.581681704E-1
1.131860054E1,2.631450295E-1,1.206910908E-1,-2.194539458E-1,3.632790667E-1
1.132861954E1,2.900262475E-1,3.173493743E-1,-1.897246242E-1,4.699162506E-1
1.133863954E1,3.109480441E-1,4.373732507E-1,-1.676598042E-1,5.622222483E-1
1.134865954E1,3.052701354E-1,4.065064192E-1,-1.804660559E-1,5.394490909E-1
1.135867854E1,2.975778580E-1,3.046644628E-1,-1.855265945E-1,4.645353956E-1
1.136869854E1,2.815663815E-1,2.334043086E-1,-1.599671841E-1,3.991825377E-1
1.137871854E1,1.943643689E-1,1.188162267E-1,-1.517153829E-1,2.737012259E-1
1.138873754E1,7.794889063E-2,-9.343295544E-2,-1.557940394E-1,1.976803719E-1
1.139875754E1,-5.762438104E-2,-2.823168635E-1,-1.634650081E-1,3.312766059E-1
1.140877754E1,-2.145719379E-1,-3.970302939E-1,-1.706932783E-1,4.825042654E-1
1.141879654E1,-3.837428391E-1,-4.601647854E-1,-1.691600978E-1,6.225956432E-1
1.142881654E1,-5.395697355E-1,-5.132007003E-1,-1.425628811E-1,7.581784970E-1
1.143883654E1,-6.803010106E-1,-5.051308274E-1,-6.323556602E-2,8.496854445E-1
1.144885554E1,-7.924492955E-1,-4.348889291E-1,3.274179995E-2,9.045309791E-1
1.145887554E1,-8.789697886E-1,-3.683179021E-1,1.132944375E-1,9.597299598E-1
1.146889554E1,-9.832216501E-1,-2.606858611E-1,1.572443545E-1,1.029275337E0
1.147891454E1,-1.115937471E0,-1.946474761E-1,1.749687642E-1,1.146219067E0
1.148893454E1,-1.223571301E0,-2.806781530E-1,1.231384128E-1,1.261376241E0
1.149895454E1,-1.314330816E0,-4.751554728E-1,1.051200368E-2,1.397622524E0
1.150897354E1,-1.372683287E0,-6.335186958E-1,-8.551363647E-2,1.514238398E0
1.151899354E1,-1.371015310E0,-6.601495147E-1,-1.354737431E-1,1.527688940E0
1.152901354E1,-1.301181078E0,-4.809760451E-1,-1.173581183E-1,1.392186439E0
1.153903254E1,-1.186054468E0,-2.212807983E-1,-6.220592186E-2,1.208122498E0
1.154905254E1,-1.064592957E0,1.606460661E-2,-1.588473842E-2,1.064832645E0
1.155907254E1,-9.795404077E-1,1.461962461E-1,-9.064381942E-3,9.904316815E-1
1.156909254E1,-9.649164081E-1,1.249967515E-1,-5.400197580E-2,9.744763085E-1
1.157911154E1,-1.008016706E0,4.913314432E-2,-1.419374198E-1,1.019145709E0
1.158913154E1,-1.101956487E0,-2.156589366E-2,-2.218776196E-1,1.124278820E0
1.159915154E1,-1.215260983E0,8.724100888E-3,-2.788151801E-1,1.246865378E0
1.160917054E1,-1.364104152E0,1.580745131E-1,-2.752087414E-1,1.400538304E0
1.161919054E1,-1.500677705E0,3.194620609E-1,-2.436108589E-1,1.553523683E0
1.162921054E1,-1.585834146E0,2.811913788E-1,-2.321007550E-1,1.627209049E0
1.163922954E1,-1.639274359E0,-3.947507590E-2,-2.408550978E-1,1.657344226E0
1.164924954E1,-1.630195856E0,-4.687436521E-1,-2.228483409E-1,1.710824516E0
1.165926954E1,-1.577816844E0,-7.022384405E-1,-2.047234029E-1,1.739125209E0
1.166928854E1,-1.515404820E0,-6.560178399E-1,-1.660941988E-1,1.659638051E0
1.167930854E1,-1.453369975E0,-4.964350760E-1,-1.244697869E-1,1.540851971E0
1.168932854E1,-1.359334707E0,-3.854610026E-1,-8.407069743E-2,1.415428880E0
1.169934754E1,-1.211936951E0,-4.174013734E-1,-9.650522843E-3,1.281837826E0
1.170936667E1,-1.034386873E0,-5.246397853E-1,2.208652161E-2,1.160039190E0
1.171938667E1,-7.846492529E-1,-5.740537047E-1,5.335522816E-2,9.736831550E-1
1.172940567E1,-4.299579561E-1,-5.521939993E-1,6.590995193E-2,7.029410918E-1
1.173942567E1,-7.451438159E-2,-5.386589766E-1,6.369207054E-2,5.475057679E-1
1.174944567E1,1.948048472E-1,-4.997668862E-1,7.564506680E-2,5.416992202E-1
1.175946467E1,3.820607662E-1,-4.784535766E-1,1.613807119E-2,6.124938296E-1
1.176948467E1,5.389063954E-1,-5.806084871E-1,-3.524125740E-2,7.929490933E-1
1.177950467E1,7.160028815E-1,-6.794362664E-1,-2.018933743E-2,9.872696571E-1
1.178952367E1,8.626226783E-1,-5.482992530E-1,8.640913665E-2,1.025776045E0
1.179954367E1,1.044405699E0,-1.915284432E-2,2.113579959E-1,1.065749641E0
1.180956367E1,1.338647008E0,6.230708957E-1,1.997232437E-1,1.489994137E0
1.181958267E1,1.759618282E0,1.157878637E0,1.228117011E-2,2.106440188E0
1.182960267E1,2.248474360E0,1.688525200E0,-2.735714614E-1,2.825171790E0
1.183962267E1,2.682736158E0,2.267499447E0,-4.003911912E-1,3.535384016E0
1.184964167E1,3.113616705E0,2.905833960E0,-3.290661275E-1,4.271623170E0
1.185966167E1,3.500042439E0,3.226886272E0,-3.467952833E-2,4.760703179E0
1.186968167E1,4.087280750E0,3.182270527E0,3.174257576E-1,5.189746501E0
1.187970067E1,4.931963921E0,2.587466955E0,6.027685404E-1,5.602016001E0
1.188972067E1,6.029492378E0,1.956005096E0,7.608836293E-1,6.384330675E0
1.189974067E1,7.356846333E0,1.116526842E0,8.473785520E-1,7.489183571E0
1.190976067E1,9.104599953E0,5.737525225E-1,8.376354575E-1,9.161035172E0
1.191977967E1,1.109980202E1,3.508579135E-1,7.780805230E-1,1.113257003E1
1.192979967E1,1.328270149E1,6.497959495E-1,9.129539132E-1,1.332988667E1
1.193981967E1,1.528200340E1,7.451283336E-1,8.962894082E-1,1.532638832E1
1.194983867E1,1.653536987E1,6.323056817E-1,6.932832003E-1,1.656197177E1
1.195985867E1,1.758363533E1,-1.249995902E-1,1.095906019E0,1.761819702E1
1.196987867E1,1.931948471E1,-2.609468699E-1,2.123177528E0,1.943755297E1
1.197989767E1,2.213798332E1,-5.315703750E-1,1.535870075E0,2.219756224E1
1.198991767E1,2.132866859E1,-1.794510484E0,9.171901941E-1,2.142366938E1
1.199993767E1,2.129218674E1,-1.661564112E0,7.160655856E-1,2.136892045E1
1.200995667E1,2.129074097E1,-1.533136129E0,5.326017141E-1,2.135251325E1
1.201997667E1,2.130600548E1,-1.434351206E0,3.639623821E-1,2.135733367E1
1.202999667E1,2.132501984E1,-1.345856190E0,2.037375271E-1,2.136841849E1
1.204001567E1,2.134099579E1,-1.292314172E0,5.641278252E-2,2.138016276E1
1.205003567E1,2.138139725E1,-1.279547930E0,-8.568247408E-2,2.141982102E1
1.206005567E1,2.141275978E1,-1.283151746E0,-2.337257415E-1,2.145244479E1
1.207007467E1,2.141727448E1,-1.304855227E0,-3.834619820E-1,2.146041323E1
1.208009467E1,2.141118240E1,-1.347514868E0,-5.311914682E-1,2.146011865E1
1.209011467E1,2.140031815E1,-1.408165455E0,-6.892732978E-1,2.145767099E1
1.210013367E1,2.138314629E1,-1.499060512E0,-8.512792587E-1,2.145252442E1
1.211015367E1,2.135839653E1,-1.630530834E0,-1.029597759E0,2.144527465E1
1.212017367E1,2.131683159E1,-1.813323021E0,-1.229295611E0,2.142910677E1
1.213019267E1,2.126587296E1,-2.066232920E0,-1.452925205E0,2.141536044E1
1.214021267E1,2.119899368E1,-2.384945154E0,-1.715689182E0,2.140160942E1
1.215023267E1,2.112222862E1,-2.779661894E0,-2.022992611E0,2.140017667E1
1.216025167E1,2.103686714E1,-3.251667261E0,-2.376335382E0,2.141891895E1
1.217027167E1,2.092869186E1,-3.806424618E0,-2.792423725E0,2.145452497E1
1.218029167E1,2.079393959E1,-4.448109150E0,-3.275714397E0,2.151520168E1
1.219031167E1,2.061680984E1,-5.184495926E0,-3.839284897E0,2.160259139E1
1.220033067E1,2.037601471E1,-6.031412125E0,-4.496279240E0,2.172041516E1
1.221035067E1,2.003306198E1,-6.984561920E0,-5.256220818E0,2.185716209E1
1.222037067E1,1.957572937E1,-8.043724060E0,-6.118700981E0,2.203064182E1
1.223038967E1,1.898651886E1,-9.237478256E0,-7.084304810E0,2.227119839E1
1.224040967E1,1.820567513E1,-1.055106831E1,-8.157487869E0,2.256803619E1
1.225042967E1,1.719806862E1,-1.196560383E1,-9.317200661E0,2.292944542E1
1.226044867E1,1.590702438E1,-1.347287560E1,-1.055117702E1,2.336405654E1
1.227046867E1,1.428813553E1,-1.503006554E1,-1.181657505E1,2.386807769E1
1.228048867E1,1.230797195E1,-1.656153297E1,-1.305184078E1,2.441559125E1
1.229050767E1,9.949841499E0,-1.795525551E1,-1.418734074E1,2.495338020E1
1.230052767E1,7.222764492E0,-1.913115501E1,-1.513365841E1,2.544006753E1
1.231054767E1,4.197712898E0,-1.995434570E1,-1.580687714E1,2.580027269E1
1.232056667E1,9.851053357E-1,-2.032077408E1,-1.612903404E1,2.596247351E1
1.233058667E1,-2.267230034E0,-2.019285774E1,-1.606648827E1,2.590412865E1
1.234060667E1,-5.402737141E0,-1.957628059E1,-1.562944794E1,2.562615799E1
1.235062567E1,-8.292416573E0,-1.854759979E1,-1.487194252E1,2.517840950E1
1.236064567E1,-1.083587074E1,-1.720260620E1,-1.387410450E1,2.461374678E1
1.237066567E1,-1.299865150E1,-1.565838528E1,-1.272046185E1,2.399916915E1
1.238068467E1,-1.477140045E1,-1.402450848E1,-1.151549053E1,2.339845361E1
1.239070467E1,-1.618902969E1,-1.237962151E1,-1.031289387E1,2.284065435E1
1.240072467E1,-1.730015755E1,-1.080353832E1,-9.169759750E0,2.236283491E1
1.241074367E1,-1.814745140E1,-9.328884125E0,-8.115419388E0,2.195946500E1
1.242076367E1,-1.878336906E1,-7.966203690E0,-7.168526173E0,2.162552016E1
1.243078367E1,-1.925838852E1,-6.734674931E0,-6.341897488E0,2.136494883E1
1.244080267E1,-1.960700417E1,-5.622730732E0,-5.625333786E0,2.115878289E1
1.245082267E1,-1.986056709E1,-4.618058205E0,-5.019286156E0,2.099909094E1
1.246084267E1,-2.003926277E1,-3.711738586E0,-4.520967007E0,2.087554067E1
1.247086167E1,-2.016340256E1,-2.888711929E0,-4.119120598E0,2.078159315E1
1.248088167E1,-2.023799133E1,-2.128371000E0,-3.806206703E0,2.070249902E1
1.249090167E1,-2.028679848E1,-1.421805143E0,-3.583315611E0,2.064983954E1
1.250092067E1,-2.030060196E1,-7.475576997E-1,-3.440391064E0,2.060363010E1
1.251094067E1,-2.029483414E1,-9.114919603E-2,-3.375111818E0,2.057376924E1
1.252096067E1,-2.026161766E1,5.593239069E-1,-3.390864849E0,2.055100868E1
1.253097967E1,-2.020794487E1,1.222040296E0,-3.484709740E0,2.054258066E1
1.254099967E1,-2.012713432E1,1.907964110E0,-3.658523083E0,2.054572107E1
1.255101967E1,-2.002054787E1,2.630707026E0,-3.911932945E0,2.056808634E1
1.256103867E1,-1.987322235E1,3.407177448E0,-4.252097130E0,2.060665317E1
1.257105867E1,-1.967947769E1,4.242296696E0,-4.683668613E0,2.066919629E1
1.258107867E1,-1.942557526E1,5.156553745E0,-5.210980415E0,2.076288365E1
1.259109867E1,-1.908736801E1,6.163379192E0,-5.839673042E0,2.089058740E1
1.260111767E1,-1.865162277E1,7.268717766E0,-6.570211887E0,2.106857789E1
1.261113767E1,-1.807975006E1,8.486834526E0,-7.414371014E0,2.130438030E1
1.262115767E1,-1.734390831E1,9.808934212E0,-8.357854843E0,2.160740807E1
1.263117667E1,-1.640058708E1,1.123277283E1,-9.396934509E0,2.198765154E1
1.264119667E1,-1.519933033E1,1.272649193E1,-1.050613976E1,2.243573515E1
1.265121667E1,-1.369940853E1,1.424581051E1,-1.165189648E1,2.294305129E1
1.266123567E1,-1.187043381E1,1.572795105E1,-1.278259277E1,2.348766317E1
1.267125567E1,-9.688813210E0,1.707839203E1,-1.382835484E1,2.401599411E1
1.268127567E1,-7.176004887E0,1.820042038E1,-1.471245480E1,2.447869838E1
1.269129467E1,-4.385107040E0,1.899026299E1,-1.535469723E1,2.481181128E1
1.270131467E1,-1.415951967E0,1.938062668E1,-1.569310284E1,2.497773182E1
1.271133467E1,1.614634395E0,1.933124352E1,-1.568983841E1,2.494944988E1
1.272135367E1,4.569063663E0,1.886419678E1,-1.535108566E1,2.474651680E1
1.273137367E1,7.323091507E0,1.803596306E1,-1.470910740E1,2.439839079E1
1.274139367E1,9.779771805E0,1.692052078E1,-1.383328438E1,2.394384507E1
1.275141267E1,1.189425087E1,1.561473179E1,-1.279273033E1,2.342961805E1
1.276143267E1,1.364485645E1,1.418568516E1,-1.167149830E1,2.288317381E1
1.277145267E1,1.505469322E1,1.271650791E1,-1.052727222E1,2.234226537E1
1.278147167E1,1.616827774E1,1.126282883E1,-9.421297073E0,2.184091016E1
1.279149167E1,1.702346420E1,9.868858337E0,-8.382644653E0,2.138834799E1
1.280151167E1,1.767861366E1,8.557320595E0,-7.434030056E0,2.100061713E1
1.281153067E1,1.817619133E1,7.342771053E0,-6.586376190E0,2.068019752E1
1.282155067E1,1.854716492E1,6.236970425E0,-5.844398499E0,2.042190296E1
1.283157067E1,1.883378983E1,5.238661289E0,-5.203495026E0,2.022947285E1
1.284158967E1,1.905176735E1,4.355329514E0,-4.657700062E0,2.009061732E1
1.285160967E1,1.922035408E1,3.582843781E0,-4.199192524E0,1.999729978E1
1.286162967E1,1.934576988E1,2.889744997E0,-3.824029207E0,1.993069587E1
1.287164867E1,1.944080734E1,2.256354094E0,-3.521070004E0,1.988552383E1
1.288166867E1,1.950367546E1,1.694340587E0,-3.289808989E0,1.985162436E1
1.289168867E1,1.954582787E1,1.191098809E0,-3.114144325E0,1.982816175E1
1.290170767E1,1.956226540E1,7.339565754E-1,-2.989579678E0,1.980299236E1
1.291172767E1,1.954941750E1,2.836831212E-1,-2.915569782E0,1.976766925E1
1.292174767E1,1.950206184E1,-1.879744083E-1,-2.892450809E0,1.971628825E1
1.293176667E1,1.943688202E1,-6.959621906E-1,-2.931261778E0,1.966898680E1
1.294178667E1,1.933978271E1,-1.235817909E0,-3.028533936E0,1.961444517E1
1.295180667E1,1.922295952E1,-1.813873291E0,-3.184649706E0,1.956921824E1
1.296182567E1,1.907090378E1,-2.439224243E0,-3.404888868E0,1.952543096E1
1.297184567E1,1.890274811E1,-3.121336222E0,-3.693095446E0,1.951142178E1
1.298186567E1,1.875503349E1,-3.854205608E0,-4.062226295E0,1.957314141E1
1.299188467E1,1.856521606E1,-4.651218891E0,-4.509057999E0,1.966297762E1
1.300190467E1,1.621021271E1,-7.582797050E0,-4.587547302E0,1.847472320E1
1.301192467E1,1.589603043E1,-7.434250355E0,-6.294965148E-1,1.755984418E1
1.302194467E1,1.530398369E1,-6.195316792E0,7.275970936E0,1.804255026E1
1.303196367E1,1.297433376E1,1.463100243E1,1.027948189E1,2.209224562E1
1.304198367E1,4.352929115E0,9.926753998E0,1.150925255E1,1.580984918E1
1.305200267E1,-6.638195515E-1,7.498225689E0,8.476855278E0,1.133671559E1
1.306202267E1,-2.498394012E0,8.212049484E0,6.277023792E0,1.063394363E1
1.307204267E1,-1.690005183E0,9.072468758E0,5.407225132E0,1.069597543E1
1.308206267E1,-5.324790478E-1,9.919554710E0,5.647305489E0,1.142686129E1
1.309208167E1,-1.703971252E-2,9.618041039E0,6.123326778E0,1.140184786E1
1.310210167E1,3.412303030E-1,9.500465393E0,6.076323032E0,1.128259644E1
1.311212167E1,6.666411161E-1,9.699755669E0,5.427370071E0,1.113490082E1
1.312214067E1,9.901787043E-1,9.626304626E0,4.510551453E0,1.067666938E1
1.313216067E1,1.890479565E0,8.427053452E0,3.774259806E0,9.425188589E0
1.314218067E1,4.284763813E0,4.437806129E0,3.115019560E0,6.910620163E0
1.315219967E1,6.457839966E0,1.676916182E-1,2.821272135E0,7.049212294E0
1.316221967E1,7.483627796E0,-1.192900538E0,2.786275625E0,8.074096144E0
1.317223967E1,7.517083168E0,-1.014006615E0,2.732186317E0,8.062232373E0
1.318225867E1,7.529202938E0,-8.336800337E-1,2.696609020E0,8.040871812E0
1.319227867E1,7.533500671E0,-6.621321440E-1,2.660504103E0,8.016878035E0
1.320229867E1,7.533991337E0,-5.115732551E-1,2.634770870E0,7.997796584E0
1.321231767E1,7.524782658E0,-3.613444865E-1,2.619364500E0,7.975838154E0
1.322233767E1,7.511059284E0,-2.082984895E-1,2.605142355E0,7.952745848E0
1.323235767E1,7.492516518E0,-5.201901495E-2,2.600846529E0,7.931261716E0
1.324237667E1,7.469052792E0,1.063951328E-1,2.598652124E0,7.908922960E0
1.325239667E1,7.445044041E0,2.605185211E-1,2.606588840E0,7.892455641E0
1.326241667E1,7.415876865E0,4.234448373E-1,2.623865366E0,7.877766477E0
1.327243567E1,7.382488728E0,5.922870040E-1,2.648392677E0,7.865489653E0
1.328245567E1,7.345057487E0,7.624371648E-1,2.672283888E0,7.853170131E0
1.329247567E1,1.350960255E0,8.242283821E0,1.548495197E1,1.759386466E1
1.330249467E1,-3.220476151E0,-3.884938478E0,-3.256013489E1,3.294884820E1
1.331251467E1,-6.380372524E0,-4.371540546E0,-1.971901321E1,2.118157224E1
1.332253467E1,-1.257450342E0,-1.481615925E1,4.514916420E0,1.553976276E1
1.333255367E1,-5.480194688E-1,-1.479791737E1,4.687122345E0,1.553215373E1
1.334257367E1,1.149281710E-1,-1.481621265E1,4.683648109E0,1.553930261E1
1.335259367E1,8.003229499E-1,-1.479770184E1,4.612563133E0,1.552057457E1
1.336261267E1,1.472809196E0,-1.473974705E1,4.534110546E0,1.549152892E1
1.337263267E1,2.120067358E0,-1.465674114E1,4.362490654E0,1.543846078E1
1.338265267E1,2.733696461E0,-1.455329227E1,4.148507595E0,1.537795590E1
1.339267167E1,3.309112787E0,-1.443014622E1,3.891026020E0,1.530749590E1
1.340269167E1,3.840466261E0,-1.429562759E1,3.579209566E0,1.522908042E1
1.341271167E1,4.318536758E0,-1.416012955E1,3.236002445E0,1.515357187E1
1.342273067E1,4.737531185E0,-1.402242470E1,2.856994867E0,1.507431643E1
1.343275067E1,5.104934216E0,-1.389085770E1,2.447708607E0,1.500025194E1
1.344277067E1,5.406477928E0,-1.376985359E1,2.014994621E0,1.492980492E1
1.345278967E1,5.641645432E0,-1.367186642E1,1.566173196E0,1.487282734E1
1.346280967E1,5.821060181E0,-1.359016800E1,1.101733446E0,1.482535748E1
1.347282967E1,5.928629875E0,-1.353623772E1,6.290086508E-1,1.479101199E1
1.348284867E1,-4.461935043E0,4.090166092E0,1.002073097E1,1.170697964E1
1.349286867E1,-5.713297367E0,5.285843849E0,1.092716122E1,1.341584005E1
1.350288867E1,-6.243241787E0,4.679928780E0,1.074898815E1,1.328233969E1
1.351290767E1,-5.881446838E0,5.501032352E0,8.487629890E0,1.170011261E1
1.352292767E1,1.367769003E0,1.576191425E1,-5.423013687E0,1.672476638E1
1.353294767E1,2.193459511E0,1.561357403E1,-5.287634373E0,1.662991388E1
1.354296667E1,2.991896629E0,1.546346474E1,-5.134505272E0,1.656602944E1
1.355298667E1,3.742743731E0,1.530564976E1,-4.790040016E0,1.646862254E1
1.356300567E1,4.442932606E0,1.511942577E1,-4.434203625E0,1.637067035E1
1.357302567E1,5.062232018E0,1.491808414E1,-4.028530121E0,1.626051913E1
1.358304567E1,-2.055736303E0,3.643383980E0,-2.689256668E0,4.973168004E0
1.359306467E1,-1.134208202E1,-8.673192024E0,-4.506635964E-1,1.428531351E1
1.360308467E1,-1.134729958E1,-8.608267784E0,1.415699273E-1,1.424371875E1
1.361310467E1,2.526311874E0,1.744539833E1,-9.138383865E-1,1.765104176E1
1.362312367E1,4.285090446E0,2.005287933E1,-6.921190023E-1,2.051728536E1
1.363314367E1,5.126276970E0,-1.016922474E1,-6.760094762E-1,1.140827928E1
1.364316367E1,4.527416229E0,-1.178121853E1,-1.024700880E0,1.266272560E1
1.365318267E1,-7.614834309E-1,-4.499241352E0,-9.294382930E-1,4.656918004E0
1.366320267E1,-3.670773745E0,-3.454460949E-2,-5.829104781E-1,3.716928549E0
1.367322267E1,-3.676039457E0,-6.169470958E-3,-5.814677477E-1,3.721748097E0
1.368324167E1,-3.670543909E0,1.557257585E-2,-5.858696699E-1,3.717038924E0
1.369326167E1,-3.666515827E0,4.116780683E-2,-5.796515942E-1,3.712280845E0
1.370328167E1,1.375837088E0,8.266852379E0,-5.305594206E-1,8.397337033E0
1.371330108E1,4.148103714E0,8.987070084E0,-3.067512810E-1,9.902943474E0
1.372332108E1,3.054542542E0,-1.199077034E1,-4.246251881E-1,1.238099794E1
1.373334108E1,-4.532834530E0,-2.389834642E0,-4.210693240E-1,5.141517079E0
1.374336008E1,-2.221478224E0,3.317660570E0,-4.181499779E-1,4.014559323E0
1.375338008E1,-8.545213938E-1,5.472898960E0,-4.550633430E-1,5.557869420E0
1.376340008E1,1.469390392E0,2.171572685E0,-3.797677755E-1,2.649350791E0
1.377341908E1,2.785526991E0,-2.252041698E-1,-2.290716022E-1,2.803988469E0
1.378343908E1,2.502672672E0,-1.285988092E0,-2.381439209E-1,2.823800348E0
1.379345908E1,-2.728617430E0,-4.811849117E0,-2.204962820E-1,5.536051266E0
1.380347808E1,3.822726011E-1,4.038880825E0,-3.039059639E-1,4.068298108E0
1.381349808E1,1.361639857E0,6.468320638E-2,-2.580612004E-1,1.387386969E0
1.382351808E1,5.310870409E-1,-2.150761604E0,-2.188818455E-1,2.226148734E0
1.383353708E1,-1.575658321E0,-1.458080292E0,-1.604167819E-1,2.152772823E0
1.384355708E1,7.399247289E-1,1.290959001E0,-4.596691206E-2,1.488682875E0
1.385357708E1,3.611492217E-1,-8.527369499E-1,-5.148848146E-2,9.274913098E-1
1.386359608E1,-7.921641469E-1,5.041633248E-1,-3.922968358E-2,9.398104393E-1
1.387361608E1,4.760936201E-1,-2.799668908E-1,4.992641881E-2,5.545622078E-1
1.388363608E1,1.925556809E-1,1.380564094E0,-2.159697115E-1,1.410559401E0
1.389365508E1,1.030051634E-1,1.920129359E-2,-1.104262993E-1,1.522258878E-1
1.390367508E1,-1.114839688E-1,-2.167574316E-1,4.844909906E-2,2.485151397E-1
1.391369508E1,-6.998714060E-3,-4.175032675E-2,-1.242617518E-2,4.411894845E-2
1.392371408E1,-3.930392116E-2,-1.124575213E-1,-6.215111539E-2,1.343661172E-1
1.393373408E1,-8.373487741E-2,-2.834661007E-1,-4.302191138E-1,5.219703496E-1
1.394375408E1,-2.882741690E-1,-8.701213598E-1,-1.935743690E0,2.141802234E0
1.395377308E1,-5.367473960E-1,-1.091253519E0,-4.049314499E0,4.227987692E0
1.396379308E1,-1.687265992E0,-5.860881880E-2,-3.451289177E0,3.842095588E0
1.397381308E1,-2.151319981E0,4.761427343E-1,-2.342474461E0,3.215909850E0
1.398383208E1,-1.598200917E0,-4.606852308E-2,-1.288659096E0,2.053536156E0
1.399385208E1,-2.132075071E0,-6.696961522E-1,-3.890014291E-1,2.268382498E0
1.400387208E1,-2.599108219E0,-1.285860389E-1,3.116070032E-1,2.620877111E0
1.401389108E1,-3.140310526E0,3.050706089E-1,7.242044806E-1,3.237142321E0
1.402391108E1,-3.355581522E0,7.770833969E-1,6.768151522E-1,3.510251374E0
1.403393108E1,-3.357470512E0,1.590790033E0,7.876978070E-2,3.716103584E0
1.404395008E1,-2.805074453E0,2.561690807E0,-8.837941289E-1,3.900230063E0
1.405397008E1,-2.239526272E0,3.724090815E0,-1.774305582E0,4.693877993E0
1.406399008E1,-2.463297844E0,4.566726685E0,-2.238476038E0,5.650982556E0
1.407400908E1,-2.672767401E0,4.522221088E0,-2.567017794E0,5.846687054E0
1.408402908E1,-3.196500301E0,4.509914398E0,-2.420116901E0,6.034393745E0
1.409404908E1,-4.055960655E0,4.263968468E0,-1.986485124E0,6.211148612E0
1.410406808E1,-5.434973240E0,3.907364845E0,-1.399608493E0,6.838518706E0
1.411408808E1,-6.452038765E0,3.355209589E0,-6.748150587E-1,7.303534143E0
1.412410808E1,-7.327484608E0,3.500514507E0,-1.197574735E-1,8.121574622E0
1.413412708E1,-7.769770145E0,3.903339386E0,8.592278510E-2,8.695560315E0
1.414414708E1,-7.957202435E0,4.781682491E0,1.679324359E-1,9.284921073E0
1.415416708E1,-8.048925400E0,5.543272495E0,3.707410991E-1,9.780108333E0
1.416418608E1,-8.137581825E0,5.516068935E0,8.012506962E-1,9.863531677E0
1.417420608E1,-8.309662819E0,4.922127247E0,1.434432268E0,9.763986313E0
1.418422608E1,-8.949153900E0,4.228863716E0,1.859423518E0,1.007115185E1
1.419424508E1,-1.031472397E1,3.859145880E0,1.715402484E0,1.114581281E1
1.420426508E1,-1.181022358E1,3.901176691E0,1.122583628E0,1.248842482E1
1.421428508E1,-1.257482243E1,3.353298426E0,6.782485843E-1,1.303191431E1
1.422430408E1,-1.234831047E1,2.328403234E0,6.372644305E-1,1.258206418E1
1.423432408E1,-1.166836452E1,1.273743629E0,7.760137320E-1,1.176330527E1
1.424434408E1,-1.077434063E1,6.315823197E-1,9.830691814E-1,1.083751527E1
1.425436308E1,-9.788343430E0,6.083070636E-1,9.625962377E-1,9.854354169E0
1.426438308E1,-8.904535294E0,7.396983504E-1,7.662405372E-1,8.968000168E0
1.427440308E1,-8.185099602E0,3.480926156E-1,5.698138475E-1,8.212290288E0
1.428442208E1,-7.601329327E0,-6.064474583E-1,4.692587256E-1,7.639907709E0
1.429444208E1,-6.912484646E0,-1.165121555E0,4.503752291E-1,7.024442331E0
1.430446208E1,-6.212216854E0,-9.919303060E-1,4.207862020E-1,6.304968279E0
1.431448108E1,-5.408396244E0,-1.447504312E-1,3.278820813E-1,5.420259152E0
1.432450108E1,-4.582157612E0,8.712154031E-1,2.757187486E-1,4.672387557E0
1.433452108E1,-3.875538826E0,1.488962054E0,4.322383106E-1,4.174163287E0
1.434454008E1,-3.269439220E0,1.525390863E0,6.536556482E-1,3.666512759E0
1.435456008E1,-2.730710983E0,1.240993500E0,7.651848197E-1,3.095537942E0
1.436458008E1,-2.173456192E0,9.000223279E-1,9.306645989E-1,2.529839640E0
1.437459908E1,-1.557103634E0,7.140300870E-1,1.081694722E0,2.025950188E0
1.438461908E1,-8.220286369E-1,4.706744850E-1,1.242718697E0,1.562566898E0
1.439463908E1,-1.435702741E-1,5.149105564E-2,1.443094850E0,1.451132832E0
1.440465808E1,4.404388368E-1,-1.675259769E-1,1.564205885E0,1.633643588E0
1.441467808E1,1.127568603E0,1.036096141E-1,1.552198172E0,1.921318576E0
1.442469808E1,1.910726309E0,7.560672760E-1,1.519425273E0,2.555614586E0
1.443471708E1,2.585655689E0,1.383980751E0,1.363525033E0,3.234226117E0
1.444473708E1,3.247951508E0,2.076749325E0,1.041534305E0,3.993353285E0
1.445475708E1,7.382519841E-1,5.608598232E0,-5.813232064E-1,5.686767693E0
1.446477608E1,1.073935986E0,3.753457785E0,-1.091626167E0,4.053816909E0
1.447479608E1,6.449682117E-1,3.453566551E0,-1.928019643E0,4.007538604E0
1.448481608E1,1.238341779E-1,3.418412209E0,-2.453523874E0,4.209590994E0
1.449483508E1,-3.252967894E-1,3.513972759E0,-2.533818245E0,4.344428323E0
1.450485508E1,-9.781728387E-1,3.674612999E0,-2.362878799E0,4.476918473E0
1.451487508E1,-1.511680245E0,3.480823994E0,-1.989193916E0,4.284647626E0
1.452489408E1,-1.660244107E0,3.264984846E0,-1.637769341E0,4.012334103E0
1.453491408E1,-1.604209065E0,2.663457155E0,-1.310409665E0,3.374116808E0
1.454493308E1,-1.524907351E0,1.862123013E0,-1.006937742E0,2.608978374E0
1.455495308E1,-1.440724015E0,1.027570605E0,-6.565984488E-1,1.887513857E0
1.456497308E1,-1.033032179E0,4.541894197E-1,-4.269660711E-1,1.206541975E0
1.457499208E1,-9.700795263E-2,2.945360541E-1,-3.015510440E-1,4.325448673E-1
1.458501208E1,8.204491138E-1,1.691344529E-1,-4.062830508E-1,9.310258476E-1
1.459503208E1,1.279678464E0,-3.075318933E-1,-9.031930566E-1,1.596217571E0
1.460505108E1,1.327615619E0,-4.852917790E-1,-1.545625329E0,2.094523573E0
1.461507108E1,1.131895185E0,4.593706876E-2,-1.937504172E0,2.244375045E0
1.462509108E1,6.237856746E-1,6.850416660E-1,-2.081667423E0,2.278536792E0
1.463511008E1,-7.279401645E-3,1.159375072E0,-1.886286616E0,2.214109470E0
1.464513008E1,-4.623902440E-1,1.424398661E0,-1.718495131E0,2.279460856E0
1.465515008E1,-6.655140519E-1,1.324494123E0,-1.670506597E0,2.233335157E0
1.466516908E1,-7.159692049E-1,9.524592757E-1,-1.786257505E0,2.147208991E0
1.467518908E1,-7.373642325E-1,5.059415698E-1,-2.006511450E0,2.196763775E0
1.468520908E1,-6.561956406E-1,4.630719125E-1,-2.135692835E0,2.281712559E0
1.469522808E1,-7.003927827E-1,5.683801174E-1,-2.127255678E0,2.310589260E0
1.470524871E1,-8.037096262E-1,6.969943047E-1,-1.935712218E0,2.208785190E0
1.471526871E1,-8.387488723E-1,7.743771672E-1,-1.535419345E0,1.913288330E0
1.472528771E1,-7.437861562E-1,8.037641048E-1,-9.683361650E-1,1.461824035E0
1.473530771E1,-5.209860206E-1,5.863882899E-1,-5.355530977E-1,9.497867027E-1
1.474532771E1,-2.393769622E-1,2.809330225E-1,-3.486162126E-1,5.076986871E-1
1.475534671E1,1.874641702E-2,7.706755400E-2,-3.457181156E-1,3.546996637E-1
1.476536671E1,2.122415900E-1,3.057328984E-2,-4.078760147E-1,4.608080533E-1
1.477538671E1,3.647771776E-1,1.201594830E-3,-3.895029426E-1,5.336444278E-1
1.478540571E1,4.868077338E-1,-2.279423773E-1,-2.972939014E-1,6.142663599E-1
1.479542571E1,6.230458617E-1,-6.585471034E-1,-2.038389891E-1,9.292043729E-1
1.480544571E1,8.076354265E-1,-1.122051954E0,-1.808039844E-1,1.394261687E0
1.481546471E1,1.070952654E0,-1.289639711E0,-1.927081645E-1,1.687378620E0
1.482548471E1,1.237602115E0,-8.280771375E-1,-1.145965829E-1,1.493486899E0
1.483550471E1,1.221702814E0,5.072296411E-2,9.343198687E-2,1.226319747E0
1.484552371E1,1.131584644E0,8.198435903E-1,5.266556144E-1,1.493316261E0
1.485554371E1,1.040803909E0,1.389371634E0,9.227776527E-1,1.965997180E0
1.486556371E1,9.534230232E-1,1.650045395E0,9.773135781E-1,2.141683239E0
1.487558271E1,7.625902295E-1,1.635894775E0,7.019709349E-1,1.936610123E0
1.488560271E1,3.711013198E-1,1.268511176E0,3.108551502E-1,1.357743613E0
1.489562271E1,-1.099011600E-1,6.912145019E-1,2.362947352E-2,7.002957265E-1
1.490564171E1,-3.794732690E-1,1.029816419E-1,4.579443485E-2,3.958564269E-1
1.491566171E1,-3.748378456E-1,-5.033752322E-1,3.283591270E-1,7.083147261E-1
1.492568171E1,-1.587851942E-1,-1.028209925E0,6.415812373E-1,1.222315373E0
1.493570071E1,1.205158457E-1,-1.347508550E0,9.046353102E-1,1.627473012E0
1.494572071E1,2.184916735E-1,-1.528697491E0,1.038759589E0,1.861095407E0
1.495574071E1,2.784120739E-1,-1.820091009E0,1.010962725E0,2.100545214E0
1.496575971E1,7.709174603E-2,-1.998915076E0,9.678637385E-1,2.222243199E0
1.497577971E1,-3.367824554E-1,-2.036144972E0,9.750237465E-1,2.282538077E0
1.498579971E1,-6.785084009E-1,-1.971022725E0,9.620965123E-1,2.295851461E0
1.499581871E1,-9.188750982E-1,-1.760176420E0,8.811235428E-1,2.172310101E0
1.500583871E1,-9.900430441E-1,-1.332814455E0,7.547357678E-1,1.823788825E0
1.501585871E1,-9.040503502E-1,-8.324151635E-1,5.859836340E-1,1.361469375E0
1.502587771E1,-6.505355239E-1,-3.923856020E-1,3.263352811E-1,8.268359234E-1
1.503589771E1,-3.155049682E-1,-2.427268475E-1,1.020664796E-1,4.109468016E-1
1.504591771E1,-3.338938579E-2,-3.506146967E-1,1.032324973E-2,3.523522189E-1
1.505593671E1,1.550778449E-1,-4.592509270E-1,3.245733306E-2,4.858127524E-1
1.506595671E1,2.831260860E-1,-5.724160671E-1,8.311145753E-2,6.439938267E-1
1.507597671E1,4.124958515E-1,-6.415570974E-1,1.673267931E-1,7.808627232E-1
1.508599571E1,5.636582375E-1,-5.053440928E-1,1.784734428E-1,7.777763371E-1
1.509601571E1,7.733662724E-1,-1.017669737E-1,1.565302759E-1,7.955838332E-1
1.510603571E1,9.359408021E-1,3.688428998E-1,1.763905287E-1,1.021344158E0
1.511605471E1,9.825077057E-1,7.335230112E-1,2.209187895E-1,1.245866169E0
1.512607471E1,9.050973058E-1,9.862362146E-1,2.308238894E-1,1.358360288E0
1.513609471E1,7.630952001E-1,1.093157411E0,1.518457532E-1,1.341776636E0
1.514611371E1,6.907927990E-1,1.043532848E0,3.417159244E-2,1.251927791E0
1.515613371E1,7.155318260E-1,8.426805735E-1,-3.762748465E-2,1.106124844E0
1.516615371E1,7.763131261E-1,5.745458007E-1,-6.361860782E-2,9.678906313E-1
1.517617271E1,8.176913261E-1,4.191685617E-1,-5.120269582E-2,9.202951179E-1
1.518619271E1,8.363910317E-1,4.529952109E-1,-1.766444370E-2,9.513499102E-1
1.519621271E1,8.220341802E-1,5.082237124E-1,1.144193229E-4,9.664530761E-1
1.520623171E1,7.181943655E-1,4.559772611E-1,-2.530758269E-2,8.510927582E-1
1.521625171E1,5.238202214E-1,2.526515126E-1,-2.293774113E-2,5.820193735E-1
1.522627171E1,2.717046738E-1,4.185166955E-2,4.189105704E-2,2.780824566E-1
1.523629071E1,4.566643853E-3,-1.323980540E-1,1.210210696E-1,1.794329909E-1
1.524631071E1,-2.739656568E-1,-3.268711269E-1,1.736184955E-1,4.604837637E-1
1.525633071E1,-6.544440389E-1,-4.734941125E-1,1.951786429E-1,8.310164723E-1
1.526634971E1,-6.371816993E-1,-9.175501764E-2,2.795356214E-1,7.018259505E-1
1.527636971E1,-4.050193131E-1,-4.126920551E-2,3.348315656E-1,5.271204498E-1
1.528638871E1,-3.302258253E-2,-1.525262147E-1,3.421278298E-1,3.760401429E-1
1.529640871E1,3.150937855E-1,-1.407649815E-1,3.601744771E-1,4.988231427E-1
1.530642871E1,4.320385158E-1,-1.693277992E-2,3.870995641E-1,5.803361704E-1
1.531644871E1,3.619053066E-1,2.094279230E-1,3.716463447E-1,5.594251615E-1
1.532646771E1,2.314540744E-1,4.631829858E-1,3.221698701E-1,6.098384147E-1
1.533648771E1,9.058139473E-2,7.217641473E-1,2.556122839E-1,7.710292557E-1
1.534650671E1,-5.718303472E-2,9.688037634E-1,1.823793650E-1,9.874780323E-1
1.535652671E1,-2.108806074E-1,1.155436754E0,9.270603955E-2,1.178176189E0
1.536654671E1,-3.301556110E-1,1.237780094E0,1.998816244E-2,1.281211074E0
1.537656571E1,-3.761917055E-1,1.196951747E0,-8.511026390E-3,1.254705591E0
1.538658571E1,-3.287576139E-1,9.972980618E-1,1.381957904E-2,1.050179020E0
1.539660571E1,-1.869849414E-1,7.349719405E-1,5.344136432E-2,7.602651518E-1
1.540662471E1,-4.256927408E-3,4.757605791E-1,1.123936325E-1,4.888748088E-1
1.541664471E1,1.518153548E-1,2.612295151E-1,1.854151636E-1,3.544961839E-1
1.542666471E1,2.349872142E-1,1.328611672E-1,2.650751173E-1,3.783330523E-1
1.543668371E1,2.215811610E-1,6.586188823E-2,3.094676435E-1,3.862722118E-1
1.544670371E1,1.023889855E-1,7.384151965E-2,3.329434097E-1,3.560721674E-1
1.545672371E1,-1.664775312E-1,2.154324353E-1,3.595553041E-1,4.510054537E-1
1.546674271E1,-4.651321471E-1,2.654045224E-1,3.490435183E-1,6.392330189E-1
1.547676271E1,-7.217232585E-1,3.910170496E-1,2.976625860E-1,8.731447818E-1
1.548678271E1,-8.544977903E-1,5.921927691E-1,2.312990129E-1,1.065062431E0
1.549680171E1,-8.781051040E-1,7.337203622E-1,1.731821448E-1,1.157327179E0
1.550682171E1,-8.282552361E-1,7.517449260E-1,1.511000097E-1,1.128697649E0
1.551684171E1,-7.220270634E-1,6.852211356E-1,1.714912653E-1,1.010079373E0
1.552686071E1,-5.434394479E-1,5.847699046E-1,1.690368950E-1,8.159998448E-1
1.553688071E1,-3.692149520E-1,4.400949180E-1,1.444922239E-1,5.923522773E-1
1.554690071E1,-2.231938094E-1,2.854840457E-1,1.135936975E-1,3.797632750E-1
1.555691971E1,-1.022265032E-1,1.458820403E-1,1.151172221E-1,2.120938529E-1
1.556693971E1,-1.146304049E-2,1.455411687E-2,1.220995039E-1,1.234970140E-1
1.557695971E1,1.259163488E-2,-3.140124306E-2,7.863340527E-2,8.560256865E-2
1.558697871E1,-6.957913190E-2,5.073969811E-2,-6.810387596E-3,8.638375970E-2
1.559699871E1,-2.107488960E-1,1.671714336E-1,-4.862371832E-2,2.733599300E-1
1.560701871E1,-3.921144307E-1,2.440302670E-1,-5.524726585E-2,4.651416540E-1
1.561703771E1,-5.631808043E-1,2.989823818E-1,-4.568923265E-2,6.392578423E-1
1.562705771E1,-6.850486398E-1,3.537561595E-1,-2.219163068E-2,7.713154528E-1
1.563707771E1,-7.213823199E-1,4.219577312E-1,2.188587561E-2,8.360142164E-1
1.564709671E1,-6.836061478E-1,4.805179834E-1,1.075347364E-1,8.424836006E-1
1.565711671E1,-6.142315865E-1,4.657806456E-1,2.179129124E-1,8.010730859E-1
1.566713671E1,-5.367708802E-1,3.332156837E-1,2.855974138E-1,6.933408631E-1
1.567715571E1,-4.456315637E-1,1.478805989E-1,2.895582914E-1,5.516340872E-1
1.568717571E1,-3.533498347E-1,-7.408059202E-3,2.641970217E-1,4.412607520E-1
1.569719571E1,-3.010258675E-1,-1.218607947E-1,2.346578240E-1,4.006631011E-1
1.570721417E1,-3.020434380E-1,-2.035277039E-1,1.972358972E-1,4.141929065E-1
1.571723417E1,-3.807694912E-1,-2.074597031E-1,2.006805241E-1,4.778049880E-1
1.572725417E1,-5.197106004E-1,-1.347996145E-1,1.891237348E-1,5.692432093E-1
1.573727317E1,-6.682772040E-1,1.103897020E-2,1.625873744E-1,6.878596766E-1
1.574729317E1,-7.617666721E-1,2.271755338E-1,1.179866344E-1,8.036280432E-1
1.575731317E1,-7.806015611E-1,4.094247818E-1,7.303429395E-2,8.844780705E-1
1.576733217E1,-7.617096305E-1,4.141971767E-1,4.367640615E-2,8.681408243E-1
1.577735217E1,-6.903536916E-1,2.586273551E-1,4.568230733E-2,7.386225027E-1
1.578737217E1,-5.672589540E-1,1.025032625E-1,6.190468743E-2,5.797601488E-1
1.579739117E1,-4.040319622E-1,-4.116823152E-2,6.764645129E-2,4.117191908E-1
1.580741117E1,-2.366147190E-1,-2.177675068E-1,4.947730526E-2,3.253570593E-1
1.581743117E1,-7.878065854E-2,-3.886083961E-1,2.623353340E-2,3.973802661E-1
1.582745017E1,4.764731973E-2,-4.459984303E-1,-2.780147083E-2,4.493971391E-1
1.583747017E1,1.183328182E-1,-3.301115930E-1,-1.103603691E-1,3.676353231E-1
1.584749017E1,1.093584970E-1,-1.603007168E-1,-1.975956708E-1,2.769470162E-1
1.585750917E1,6.586366147E-2,-3.354477882E-2,-2.354983240E-1,2.468253121E-1
1.586752917E1,4.243290424E-2,1.145864930E-2,-2.094515413E-1,2.140135513E-1
1.587754917E1,6.171125919E-2,-2.851314144E-3,-1.449548453E-1,1.575700374E-1
1.588756817E1,1.339897215E-1,-2.526687458E-2,-8.874376118E-2,1.626871709E-1
1.589758817E1,2.620974183E-1,-3.680057079E-2,-3.972335532E-2,2.676327402E-1
1.590760817E1,4.152848423E-1,-5.350285396E-2,4.772737622E-3,4.187443547E-1
1.591762717E1,5.625902414E-1,-1.104073003E-1,3.905922920E-2,5.746504808E-1
1.592764717E1,6.858216524E-1,-1.863515824E-1,5.796207860E-2,7.130482829E-1
1.593766717E1,7.767744064E-1,-2.649649382E-1,7.779911906E-2,8.244013585E-1
1.594768617E1,8.172124028E-1,-3.404687345E-1,1.018746346E-1,8.911416900E-1
1.595770617E1,7.890878916E-1,-4.213521183E-1,1.079256982E-1,9.010245638E-1
1.596772517E1,7.006211281E-1,-4.964183867E-1,9.557368606E-2,8.639649931E-1
1.597774517E1,5.827766657E-1,-4.916107357E-1,7.178179175E-2,7.658083201E-1
1.598776517E1,4.793909192E-1,-3.064568639E-1,2.132553980E-2,5.693735518E-1
1.599778417E1,3.948007822E-1,-5.576048791E-2,-4.814885557E-2,4.016157392E-1
1.600780417E1,3.349291980E-1,1.335694790E-1,-1.103888005E-1,3.770995368E-1
1.601782417E1,3.225636780E-1,2.517498136E-1,-1.322184950E-1,4.300081690E-1
1.602784317E1,3.507044911E-1,2.985207736E-1,-1.115387827E-1,4.738662179E-1
1.603786317E1,3.828126490E-1,2.251489311E-1,-8.942003548E-2,4.530270502E-1
1.604788317E1,3.899664283E-1,3.932130057E-3,-5.578830093E-2,3.939563572E-1
1.605790217E1,3.498335481E-1,-2.833962142E-1,-1.527396217E-2,4.504777681E-1
1.606792217E1,2.591364086E-1,-5.260589123E-1,4.703042656E-2,5.883039337E-1
1.607794217E1,1.308288574E-1,-7.315022349E-1,9.643834829E-2,7.493410870E-1
1.608796117E1,1.480930950E-2,-8.251525164E-1,1.021724045E-1,8.315859494E-1
1.609798117E1,-7.733015716E-2,-7.839158177E-1,7.102780044E-2,7.909165006E-1
1.610800117E1,-1.577022374E-1,-7.356820107E-1,1.868390478E-2,7.526268031E-1
1.611802017E1,-2.473183125E-1,-7.254368663E-1,-3.016804345E-2,7.670300552E-1
1.612804017E1,-3.211067617E-1,-7.392587066E-1,-4.637870565E-2,8.073190026E-1
1.613806017E1,-3.600633442E-1,-7.763636112E-1,-5.117761344E-2,8.573244525E-1
1.614807917E1,-3.611240685E-1,-8.158500195E-1,-4.883243144E-2,8.935359273E-1
1.615809917E1,-3.264470100E-1,-8.267874122E-1,-1.904425398E-2,8.891050325E-1
1.616811917E1,-2.578889728E-1,-7.949650288E-1,3.643178567E-2,8.365425239E-1
1.617813817E1,-1.584179252E-1,-7.348051667E-1,1.205043867E-1,7.612858723E-1
1.618815817E1,-2.360844426E-2,-6.800316572E-1,1.820484251E-1,7.043735107E-1
1.619817817E1,1.131481528E-1,-6.933812499E-1,2.026201189E-1,7.311873732E-1
1.620819717E1,2.330172956E-1,-7.195857167E-1,2.283731550E-1,7.900980709E-1
