"Time (s)","Gyroscope x (rad/s)","Gyroscope y (rad/s)","Gyroscope z (rad/s)","Absolute (rad/s)"
2.883850000E-2,6.995122414E-3,-1.649990911E-3,-5.767915398E-3,9.215370618E-3
3.885850000E-2,4.446911160E-3,1.507301349E-4,-3.558118595E-3,5.697187584E-3
4.887950000E-2,6.575043313E-3,1.494561089E-3,-3.945874982E-3,7.812479555E-3
5.889950000E-2,5.800762679E-3,-9.059892036E-4,-3.052211832E-3,6.617073460E-3
6.891950000E-2,5.944306962E-3,7.627474843E-4,-5.507044261E-4,6.018292478E-3
7.894050001E-2,2.392282244E-3,-1.778966980E-3,-2.328854753E-4,2.990313277E-3
8.896050001E-2,2.555001527E-3,-2.180882730E-4,-2.084581181E-3,3.304704828E-3
9.898050000E-2,2.633031923E-3,3.106869524E-3,2.560606808E-4,4.080571335E-3
1.090005000E-1,3.595232032E-3,7.222749991E-4,-2.912188647E-4,3.678611554E-3
1.190215000E-1,9.350674227E-4,-7.261424325E-4,1.520000515E-4,1.193623866E-3
1.290415000E-1,1.478086226E-3,1.035272260E-3,-1.977384090E-5,1.804693478E-3
1.390615000E-1,1.527484041E-3,-4.953686148E-4,1.822455437E-3,2.428979493E-3
1.490815000E-1,-2.015585545E-3,1.300134580E-3,4.197684757E-4,2.434982667E-3
1.591025000E-1,-3.885520156E-3,-2.140778117E-3,3.041529795E-3,5.378763922E-3
1.691225000E-1,-1.208244357E-3,-3.274318296E-4,2.287855372E-3,2.607939461E-3
1.791425000E-1,-4.399580415E-3,-1.575781498E-4,4.099830985E-4,4.421450536E-3
1.891635000E-1,-3.140171524E-3,9.568850510E-5,6.603202783E-4,3.210273565E-3
1.991835000E-1,-2.626411151E-3,-2.999206306E-3,4.531690793E-4,4.012310583E-3
2.092035000E-1,-2.512960229E-3,-2.860988257E-3,2.238552319E-3,4.417164182E-3
2.192235000E-1,-4.868438002E-3,3.863028251E-4,2.391499467E-3,5.437847750E-3
2.292445000E-1,-8.855722845E-3,-1.312793931E-3,3.838927252E-3,9.740873547E-3
2.392645000E-1,-7.408382837E-3,-1.628416590E-3,1.427353360E-3,7.718368640E-3
2.492845000E-1,-7.255251054E-3,-1.092588296E-3,2.367715584E-3,7.709636446E-3
2.593045000E-1,-8.407633752E-3,-3.192608710E-4,1.584711717E-3,8.561632089E-3
2.693255000E-1,-8.480338380E-3,-1.043906901E-3,5.733650178E-3,1.028983115E-2
2.793455000E-1,-6.297280546E-3,7.444719085E-4,5.666332785E-3,8.503958368E-3
2.893655000E-1,-7.969746366E-3,-5.114749074E-4,3.083066549E-3,8.560593617E-3
2.993865000E-1,-6.207730155E-3,8.283269126E-4,3.226422239E-3,7.044986843E-3
3.094065000E-1,-7.713482250E-3,-2.454596106E-4,6.188389845E-3,9.892129584E-3
3.194265000E-1,-6.994727533E-3,-7.431420963E-4,1.289736945E-3,7.151356153E-3
3.294465000E-1,-8.422447369E-3,-7.703064475E-4,2.936635632E-3,8.952922458E-3
3.394675000E-1,-5.934691522E-3,-8.923008572E-4,4.685915075E-3,7.614102992E-3
3.494875000E-1,-5.772770848E-3,3.061217722E-4,1.979344990E-3,6.110351904E-3
3.595075000E-1,-1.067185402E-2,-3.684321418E-4,4.924592096E-3,1.175907385E-2
3.695275000E-1,-9.681157768E-3,-4.627080634E-4,3.012176137E-3,1.014948864E-2
3.795485000E-1,-1.043183729E-2,-1.173322089E-4,2.925407141E-3,1.083489746E-2
3.895685000E-1,-6.728712935E-3,-3.402389120E-4,4.355524667E-3,8.022589071E-3
3.995885000E-1,-7.275457960E-3,-2.004898386E-3,2.838064218E-3,8.062661754E-3
4.096095000E-1,-6.613928359E-3,-6.034970284E-7,6.464757025E-3,9.248628660E-3
4.196295000E-1,-7.275239099E-3,7.862502243E-4,3.009783803E-3,7.912401146E-3
4.296495000E-1,-4.320728127E-3,-1.795684686E-3,4.540835042E-3,6.520150145E-3
4.396695000E-1,-6.143049803E-3,-8.608172648E-4,3.896982642E-3,7.325608572E-3
4.496905000E-1,-7.955331355E-3,8.587858174E-4,3.231991315E-3,8.629633707E-3
4.597105000E-1,-2.763964701E-3,1.181120519E-3,2.392877825E-3,3.841928010E-3
4.697305000E-1,-5.221795756E-3,2.080469858E-3,4.256025422E-3,7.050479285E-3
4.797515000E-1,-4.869691562E-3,5.280368496E-4,8.173862589E-4,4.965968095E-3
4.897715000E-1,-3.957292531E-3,2.792975865E-4,1.636308269E-3,4.291348980E-3
4.997915000E-1,-5.278223660E-3,3.800846171E-4,2.975870389E-3,6.071236603E-3
5.098115000E-1,-3.088040743E-3,1.415788080E-3,1.759338425E-3,3.825666375E-3
5.198325000E-1,-3.706657793E-3,9.255596669E-4,1.969526056E-3,4.298256109E-3
5.298525000E-1,-3.604925703E-3,6.134372670E-4,1.926649013E-3,4.133251870E-3
5.398725000E-1,-5.181448068E-3,1.311545493E-3,-3.865256440E-4,5.358820555E-3
5.498925000E-1,-3.134557046E-4,1.574932132E-3,1.874764450E-3,2.468482822E-3
5.599135000E-1,-6.432221271E-4,8.362324443E-4,-3.498429433E-4,1.111489762E-3
5.699335000E-1,-2.025935333E-3,-7.438210305E-4,8.629606455E-4,2.324303073E-3
5.799535000E-1,7.972633466E-5,-8.941460401E-4,1.385097858E-5,8.978002445E-4
5.899745000E-1,8.829357103E-4,-8.360892534E-4,3.408316057E-3,3.618734455E-3
5.999945000E-1,-2.130164299E-3,-4.390121903E-4,3.957482986E-4,2.210644332E-3
6.100145000E-1,5.551008508E-4,5.527490284E-4,5.020084209E-4,9.304197427E-4
6.200345000E-1,3.088399302E-3,1.124175033E-3,-1.223093364E-3,3.506841475E-3
6.300555000E-1,8.454849012E-4,-1.693982165E-3,-1.129882876E-3,2.204780172E-3
6.400755000E-1,1.974530984E-3,7.611790206E-4,1.019417192E-3,2.348909857E-3
6.500955000E-1,9.630625136E-4,5.720946938E-4,-9.633062873E-4,1.477410149E-3
6.601155000E-1,2.026431262E-3,-4.001536872E-4,-3.215100151E-4,2.090434243E-3
6.701365000E-1,3.739376087E-3,7.300919387E-4,-1.002214034E-3,3.939593980E-3
6.801565000E-1,5.240263883E-3,1.417269930E-3,-3.713883925E-4,5.441226788E-3
6.901765000E-1,3.739306238E-3,4.348298535E-4,-8.563499432E-4,3.860676542E-3
7.001975000E-1,4.695584066E-3,-2.754079178E-4,-3.251923714E-3,5.718336042E-3
7.102175000E-1,7.246892434E-3,6.769385654E-4,-1.319267903E-3,7.397037486E-3
7.202375000E-1,6.093177479E-3,1.703657326E-3,-5.973097868E-4,6.355001106E-3
7.302575000E-1,3.776227590E-3,2.676809672E-4,-8.756101597E-4,3.885645514E-3
7.402785000E-1,4.894420505E-3,-1.463254914E-3,-1.954534790E-3,5.469613630E-3
7.502985000E-1,6.552504841E-3,2.156513510E-3,-4.974559881E-3,8.504828994E-3
7.603185000E-1,5.729556549E-3,1.308757463E-3,-2.176135313E-3,6.267075015E-3
7.703385000E-1,6.762596779E-3,1.577470335E-3,-3.645667573E-3,7.842959894E-3
7.803595000E-1,6.588191260E-3,1.831829431E-3,-4.880283959E-3,8.401013907E-3
7.903795000E-1,5.248354748E-3,1.583889127E-3,-3.155354178E-3,6.325361042E-3
8.003995000E-1,8.119907230E-3,1.766688889E-3,-3.668682184E-3,9.083683836E-3
8.104205000E-1,4.372040741E-3,7.962328382E-4,-3.223401960E-3,5.489904113E-3
8.204405000E-1,5.720764399E-3,1.812831382E-3,-4.737273790E-3,7.645604351E-3
8.304605000E-1,5.314632319E-3,4.647392780E-4,-1.887958031E-3,5.659124032E-3
8.404805000E-1,5.478816107E-3,-8.343746886E-4,-3.851142712E-3,6.748696707E-3
8.505015000E-1,4.176530056E-3,1.912143198E-3,-2.341929590E-3,5.155999333E-3
8.605215000E-1,3.253748640E-3,7.554537151E-4,-2.207156271E-3,4.003639511E-3
8.705415000E-1,5.827427842E-3,-9.532305412E-4,-2.563220914E-3,6.437209424E-3
8.805625000E-1,5.529952701E-3,2.883351408E-4,-2.589586191E-3,6.113057391E-3
8.905825000E-1,5.009537563E-3,-1.587958541E-4,8.780814824E-4,5.088389707E-3
9.006025000E-1,7.010967471E-3,1.702222507E-3,-1.732268021E-3,7.419702072E-3
9.106225000E-1,2.530731261E-3,1.946070697E-4,-2.920303959E-3,3.869192143E-3
9.206435000E-1,2.494879998E-3,1.414533355E-3,-1.562532270E-3,3.266012541E-3
9.306635000E-1,5.054444075E-3,8.685853099E-4,-4.759626463E-4,5.150571404E-3
9.406835000E-1,3.799896222E-3,3.877738491E-4,-2.942000749E-3,4.821301511E-3
9.507035000E-1,1.790008508E-3,-2.933188109E-3,-6.005495088E-4,3.488320893E-3
9.607245000E-1,2.754472196E-3,7.473430596E-4,-6.691213930E-4,2.931443700E-3
9.707445000E-1,9.445878677E-4,-5.509480834E-4,-7.777784485E-4,1.341912570E-3
9.807645000E-1,2.382891253E-3,1.350578386E-4,6.445392501E-4,2.472214025E-3
9.907855000E-1,2.801007591E-3,7.214860525E-4,-3.779237624E-3,4.759077922E-3
1.000805500E0,2.050764393E-3,1.942560310E-3,-9.449361823E-5,2.826323441E-3
1.010825500E0,-1.474083401E-4,9.374833899E-4,-6.819869159E-4,1.168636162E-3
1.020845375E0,7.364954799E-4,7.283997256E-4,-7.586285938E-5,1.038627424E-3
1.030866375E0,3.703106195E-4,1.449317439E-3,6.232169690E-4,1.620509297E-3
1.040886375E0,-1.423028763E-3,-5.551208742E-4,-5.264448700E-4,1.615646696E-3
1.050906375E0,-1.003580634E-3,2.189533086E-3,5.734406877E-4,2.475896494E-3
1.060926375E0,-1.153316814E-3,1.390168094E-3,1.609341474E-3,2.419232727E-3
1.070947375E0,-1.512577292E-3,-1.291368855E-3,3.284736304E-3,3.839923979E-3
1.080967375E0,-1.633817796E-3,1.344460878E-3,-1.362474286E-3,2.516599257E-3
1.090987375E0,-3.266867716E-3,-9.330743924E-4,3.661836381E-4,3.417183482E-3
1.101008375E0,-4.419384990E-3,-2.494547516E-5,9.609729750E-4,4.522726503E-3
1.111028375E0,-2.770622727E-3,4.474993329E-4,2.231833525E-3,3.585761680E-3
1.121048375E0,-3.205783200E-3,-1.098417444E-3,2.421419369E-3,4.164953609E-3
1.131068375E0,-3.634019289E-3,7.743174210E-4,2.767757396E-4,3.725891635E-3
1.141089375E0,-4.612133373E-3,-2.606122289E-3,6.808822509E-4,5.341090551E-3
1.151109375E0,-2.197444905E-3,3.180287313E-4,2.392762108E-3,3.264232971E-3
1.161129375E0,-4.516025539E-3,-7.196445949E-5,3.096616128E-4,4.527201771E-3
1.171149375E0,-4.677945282E-3,1.197830890E-3,-1.662452705E-4,4.831729338E-3
1.181170375E0,-6.762675475E-3,1.261622063E-3,-2.459089155E-4,6.883744694E-3
1.191190375E0,-5.068106111E-3,1.506366651E-3,1.247059088E-3,5.432310412E-3
1.201210375E0,-6.465525832E-3,3.363355063E-4,7.282408769E-4,6.515096364E-3
1.211231375E0,-4.218616057E-3,1.142988913E-5,1.684848336E-3,4.542638660E-3
1.221251375E0,-1.630356070E-3,1.202567248E-3,-5.852996837E-4,2.108744797E-3
1.231271375E0,-5.112705287E-3,-2.935966477E-4,2.000629669E-3,5.498042689E-3
1.241291375E0,-6.667757872E-3,-1.617034432E-4,2.681821119E-3,7.188693036E-3
1.251312375E0,-5.392370280E-3,5.240605678E-4,1.149704447E-3,5.538421890E-3
1.261332375E0,-5.490141455E-3,-4.597934894E-4,3.371497733E-4,5.519667854E-3
1.271352375E0,-6.709070411E-3,5.303698126E-4,4.199740360E-4,6.743092473E-3
1.281373375E0,-3.730390687E-3,1.903679222E-3,3.463918692E-4,4.202356075E-3
1.291393375E0,-6.312592421E-3,1.700746361E-3,6.771564367E-4,6.572663242E-3
1.301413375E0,-4.966896493E-3,1.084208488E-4,8.667735383E-4,5.043125243E-3
1.311433375E0,-4.446248990E-3,8.535733214E-4,-7.412431296E-4,4.587718264E-3
1.321454375E0,-5.038436037E-3,-4.475270398E-4,1.771563082E-3,5.359529261E-3
1.331474375E0,-3.891146276E-3,-3.319457173E-4,1.947053825E-4,3.910130111E-3
1.341494375E0,-5.214539822E-3,-1.912622014E-3,4.820030008E-4,5.575112144E-3
1.351514375E0,-1.704760361E-3,-2.953651594E-3,4.119618679E-4,3.435109636E-3
1.361535375E0,-3.960954491E-3,2.855807543E-4,-7.843073690E-4,4.047944527E-3
1.371555375E0,-1.982491929E-3,2.014238620E-3,1.313198358E-3,3.116395577E-3
1.381575375E0,-1.491671894E-3,-5.429310258E-4,8.399545914E-4,1.795935092E-3
1.391596375E0,-3.510348033E-3,-1.312052133E-3,3.539276659E-4,3.764211591E-3
1.401616375E0,7.201819681E-4,8.615870029E-4,1.986874267E-4,1.140381920E-3
1.411636375E0,-3.668174613E-3,3.912728280E-4,-1.501208171E-3,3.982740940E-3
1.421656375E0,-2.957212273E-3,7.209209725E-4,3.468233626E-5,3.044016153E-3
1.431677375E0,-9.401342832E-4,-2.889495809E-4,-1.695821411E-4,9.980493140E-4
1.441697375E0,-5.796398036E-4,7.921586512E-4,1.888694824E-4,9.995845697E-4
1.451717375E0,-5.258438177E-4,7.122638635E-4,1.108991681E-3,1.419046891E-3
1.461737375E0,-1.963517163E-3,2.213635016E-4,-2.337074373E-3,3.060444097E-3
1.471758375E0,1.270645298E-4,8.397495840E-4,-5.117439432E-4,9.915677596E-4
1.481778375E0,-6.826692261E-4,3.264080733E-4,-1.635018270E-5,7.568664552E-4
1.491798375E0,-1.543669496E-3,9.200266795E-4,2.187415492E-3,2.830927611E-3
1.501819375E0,-9.433948435E-4,8.853711188E-5,-5.594200338E-4,1.100356045E-3
1.511839375E0,1.025213860E-3,-1.042240998E-3,-1.501380000E-3,2.095583847E-3
1.521859375E0,2.718087286E-3,-9.921183810E-4,-5.902362172E-4,2.953079099E-3
1.531879375E0,8.743810467E-4,4.414613359E-4,-6.229930441E-4,1.160840497E-3
1.541900375E0,2.388018649E-3,2.239811001E-3,4.222293792E-4,3.301161014E-3
1.551920375E0,1.274284441E-3,-3.659889568E-3,-3.540820908E-4,3.891524972E-3
1.561940375E0,2.950780559E-3,1.030697604E-3,7.875642623E-4,3.223305900E-3
1.571960375E0,1.691638026E-3,1.770257368E-3,-6.337647792E-4,2.529250513E-3
1.581981375E0,1.414068043E-3,-1.508137211E-5,1.173025812E-3,1.837336505E-3
1.592001375E0,8.990126662E-4,3.620223142E-4,1.092598308E-3,1.460498200E-3
1.602021375E0,6.112178322E-3,9.670394473E-3,-2.084931824E-3,1.162850781E-2
1.612042375E0,5.666631274E-3,1.203581411E-2,-9.528220398E-4,1.333714367E-2
1.622062375E0,6.001598202E-3,2.235469408E-3,1.337556168E-3,6.542595888E-3
1.632082375E0,7.139567286E-3,-3.299378091E-3,-5.743271904E-4,7.886010940E-3
1.642102375E0,8.228666149E-3,-9.171981364E-4,9.557097219E-4,8.334601375E-3
1.652123375E0,7.696566172E-3,4.841887392E-3,1.351988176E-3,9.192870954E-3
1.662143375E0,7.745601237E-3,5.615949631E-3,2.114135539E-3,9.798101747E-3
1.672163375E0,1.221012417E-2,-8.914523758E-3,2.247293713E-3,1.528418121E-2
1.682184375E0,1.186241675E-2,-4.986869171E-3,1.623634016E-3,1.297004174E-2
1.692204375E0,1.356897037E-2,3.293165006E-3,1.752797281E-3,1.407246215E-2
1.702224375E0,1.391251665E-2,8.459288627E-3,2.639832906E-3,1.649504172E-2
1.712244375E0,1.783988066E-2,8.853171021E-3,2.702150960E-3,2.009829841E-2
1.722265375E0,1.879402064E-2,4.175637849E-3,5.981107824E-4,1.926159131E-2
1.732285375E0,1.835646294E-2,-1.034304500E-3,2.601606771E-3,1.856873381E-2
1.742305375E0,1.965662278E-2,-9.002540261E-3,1.873921603E-3,2.170115510E-2
1.752325375E0,2.050670423E-2,-4.759059288E-3,7.623181446E-4,2.106548581E-2
1.762346375E0,2.019078098E-2,1.662177965E-6,2.183451783E-3,2.030849825E-2
1.772366375E0,2.042593807E-2,6.233459339E-3,1.344156335E-4,2.135633463E-2
1.782386375E0,2.046172880E-2,7.873918861E-3,-7.326634368E-4,2.193667567E-2
1.792406375E0,2.043296769E-2,4.192631226E-3,-2.397937933E-3,2.099605753E-2
1.802427375E0,2.150731720E-2,-6.155797746E-3,3.631878062E-4,2.237387862E-2
1.812447375E0,1.850913092E-2,-7.406417746E-3,-3.979628906E-3,2.032929900E-2
1.822467375E0,1.779972762E-2,-9.386264719E-3,-5.414466374E-3,2.083863515E-2
1.832488375E0,1.871026121E-2,-4.264206626E-3,-5.158803426E-3,1.987135087E-2
1.842508375E0,1.579550467E-2,-1.178049017E-3,-8.067699149E-3,1.777564449E-2
1.852528375E0,1.604344510E-2,6.615159102E-3,-8.899138309E-3,1.950249018E-2
1.862548375E0,1.796864159E-2,2.480606735E-2,-6.266038399E-3,3.126461730E-2
1.872569375E0,1.968584768E-2,2.510221116E-2,-6.020761561E-3,3.246387491E-2
1.882589375E0,1.959353872E-2,1.591733843E-2,-5.446779542E-3,2.582510077E-2
1.892609375E0,2.497525513E-2,9.653585032E-3,-5.448909942E-3,2.732481825E-2
1.902630375E0,2.532672696E-2,2.885475522E-3,-3.092071973E-3,2.567742153E-2
1.912650375E0,2.520502172E-2,-5.510140210E-3,-3.017503768E-3,2.597614471E-2
1.922670375E0,2.420150861E-2,-1.579261199E-2,-2.238297137E-3,2.898498899E-2
1.932690375E0,2.481243759E-2,-1.552336663E-2,-3.432192374E-3,2.946882956E-2
1.942711375E0,2.893037535E-2,-1.518717222E-2,-2.085283166E-3,3.274088001E-2
1.952731375E0,3.047500923E-2,-9.792406112E-3,-7.885898813E-4,3.201935788E-2
1.962751375E0,3.052415140E-2,-3.578221425E-3,-9.207859403E-4,3.074695650E-2
1.972771375E0,2.997287735E-2,1.227452885E-3,-7.490121061E-4,3.000734971E-2
1.982792375E0,2.919050679E-2,3.733919002E-4,9.552143165E-4,2.920851832E-2
1.992812375E0,3.112609312E-2,-1.947819255E-3,-2.567082411E-3,3.129245252E-2
2.002832375E0,3.167527169E-2,-5.918911658E-3,-2.700483892E-3,3.233649587E-2
2.012854167E0,3.029442020E-2,-7.049690001E-3,-1.424296875E-3,3.113645204E-2
2.022874167E0,3.246998787E-2,3.272400703E-3,1.429980039E-4,3.263478462E-2
2.032894167E0,3.609961271E-2,8.439466357E-3,-1.315349014E-3,3.709631752E-2
2.042914167E0,3.759874031E-2,5.757467356E-3,-3.446632298E-3,3.819283935E-2
2.052935167E0,3.668420762E-2,6.449623033E-3,-1.417836174E-3,3.727383781E-2
2.062955167E0,4.017877579E-2,-7.489842363E-3,-4.366244189E-3,4.110347736E-2
2.072975167E0,4.484756291E-2,-1.283693686E-2,-4.641881213E-3,4.687897085E-2
2.082995167E0,4.574844614E-2,-7.084584795E-3,-2.152439672E-3,4.634376616E-2
2.093016167E0,5.230088532E-2,-3.322337521E-3,-2.096247161E-3,5.244821049E-2
2.103036167E0,5.613300577E-2,1.057990361E-3,-8.521907730E-4,5.614944264E-2
2.113056167E0,6.262845546E-2,-5.400175229E-3,-1.251398586E-3,6.287329580E-2
2.123077167E0,6.523941457E-2,2.573717851E-3,3.393297666E-4,6.529104366E-2
2.133097167E0,8.065699041E-2,1.617661119E-2,3.693847451E-3,8.234608285E-2
2.143117167E0,9.106746316E-2,3.615237027E-2,1.443094108E-3,9.799162844E-2
2.153137167E0,9.871659428E-2,3.665437549E-2,-5.199219449E-4,1.053032742E-1
2.163158167E0,1.076983288E-1,1.731182635E-2,-3.405758180E-3,1.091339935E-1
2.173178167E0,1.115109101E-1,1.984003466E-3,-4.664367996E-3,1.116260528E-1
2.183198167E0,1.196855232E-1,-8.420426399E-3,-5.086443853E-3,1.200891334E-1
2.193218167E0,1.254291534E-1,-8.488336578E-3,-4.382570740E-3,1.257924136E-1
2.203239167E0,1.326230615E-1,-1.460344298E-3,-3.618356306E-3,1.326804490E-1
2.213259167E0,1.302661598E-1,-7.029586285E-2,-2.394100651E-3,1.480422657E-1
2.223279167E0,1.480224580E-1,-8.866812102E-3,-2.886313247E-3,1.483158765E-1
2.233300167E0,1.473923475E-1,-5.851048976E-3,-2.376850462E-3,1.475275848E-1
2.243320167E0,1.735711843E-1,-1.735206135E-2,4.341493361E-3,1.744903969E-1
2.253340167E0,1.555993706E-1,1.247774065E-2,2.830682090E-3,1.561245365E-1
2.263360167E0,1.669077277E-1,-7.632170804E-3,1.628543716E-3,1.670900708E-1
2.273381167E0,1.616144329E-1,1.300999057E-2,-9.240960935E-4,1.621398740E-1
2.283401167E0,1.746413410E-1,-1.036482491E-2,1.343129552E-4,1.749486942E-1
2.293421167E0,1.742043197E-1,2.504483238E-2,-5.242343061E-3,1.760734812E-1
2.303442167E0,1.870124489E-1,-8.224048652E-4,-4.460497294E-3,1.870674435E-1
2.313462167E0,1.690989733E-1,2.201473340E-2,-6.832841318E-3,1.706628225E-1
2.323482167E0,1.897241920E-1,-2.490647510E-2,-5.666283425E-3,1.914359118E-1
2.333502167E0,1.622938961E-1,1.859013550E-2,-1.085065864E-2,1.637151143E-1
2.343523167E0,1.847342998E-1,-1.714781113E-2,-1.094112638E-2,1.858507928E-1
2.353543167E0,1.834679693E-1,-6.179848686E-3,-1.428792067E-2,1.841272141E-1
2.363563167E0,1.743261963E-1,4.572619218E-3,-1.171018928E-2,1.747788892E-1
2.373583167E0,1.852970868E-1,-1.087664440E-2,-1.065504458E-2,1.859216011E-1
2.383604167E0,1.837987006E-1,1.016869582E-2,-8.105171844E-3,1.842581301E-1
2.393624167E0,1.967552453E-1,-1.259600371E-2,-8.242590353E-3,1.973302465E-1
2.403644167E0,1.885700822E-1,6.654879544E-4,-6.532506086E-3,1.886843724E-1
2.413665167E0,1.953294426E-1,-1.442025509E-2,-5.827034824E-3,1.959476697E-1
2.423685167E0,1.894271821E-1,-8.716805838E-3,-8.872521110E-3,1.898350907E-1
2.433705167E0,1.979722083E-1,-1.991593093E-2,-1.010529883E-2,1.992279012E-1
2.443725167E0,2.063276321E-1,-4.212994501E-2,-1.363263186E-2,2.110257631E-1
2.453746167E0,2.123679519E-1,-1.200620551E-3,-1.794562116E-2,2.131282097E-1
2.463766167E0,2.125003040E-1,6.091114599E-3,-1.776213013E-2,2.133283247E-1
2.473786167E0,2.313397825E-1,2.047032118E-2,-2.447995357E-2,2.335302917E-1
2.483806167E0,2.039579004E-1,3.917761147E-2,-2.560601383E-2,2.092591177E-1
2.493827167E0,2.138683200E-1,-1.207518857E-2,-3.410176560E-2,2.169064289E-1
2.503847167E0,2.080011070E-1,-4.306792468E-2,-3.480829298E-2,2.152461937E-1
2.513867167E0,1.856569201E-1,-3.082856908E-2,-3.790821135E-2,1.919789705E-1
2.523888167E0,1.993801147E-1,-1.973732002E-2,-4.120793939E-2,2.045484935E-1
2.533908167E0,1.828173846E-1,1.581881009E-2,-4.292221740E-2,1.884535688E-1
2.543928167E0,1.790247411E-1,2.242696658E-2,-4.252462834E-2,1.853676637E-1
2.553948167E0,1.713513732E-1,1.032769494E-2,-4.593028128E-2,1.777007178E-1
2.563969167E0,1.487912089E-1,2.365548350E-2,-4.254087433E-2,1.565507321E-1
2.573989167E0,1.385210007E-1,-1.913112774E-2,-4.063165560E-2,1.456193639E-1
2.584009167E0,1.320936531E-1,-3.268663585E-2,-3.640555590E-2,1.408634582E-1
2.594030167E0,1.221640632E-1,-4.791884869E-2,-3.320150450E-2,1.353610516E-1
2.604050167E0,1.073629037E-1,-2.352378517E-2,-3.168813139E-2,1.143866217E-1
2.614070167E0,1.214265227E-1,-2.698296495E-2,-2.297134139E-2,1.264917521E-1
2.624090167E0,1.120635569E-1,2.221837826E-2,-1.404532697E-2,1.151050317E-1
2.634111167E0,1.141416207E-1,1.313167252E-2,-9.077467024E-3,1.152525523E-1
2.644131167E0,1.094252244E-1,2.091022441E-3,1.025569625E-3,1.094500064E-1
2.654151167E0,1.171768904E-1,-2.583781444E-2,1.000867784E-2,1.204084296E-1
2.664171167E0,9.451538324E-2,6.531810388E-3,2.078475617E-2,9.699396015E-2
2.674192167E0,1.036580205E-1,1.509088906E-3,2.459440753E-2,1.065464567E-1
2.684212167E0,1.027339995E-1,3.878949955E-2,2.337107621E-2,1.122724683E-1
2.694232167E0,1.226778850E-1,3.789521009E-2,2.687073685E-2,1.311790643E-1
2.704253167E0,1.122942120E-1,6.507370621E-2,2.438358776E-2,1.320573233E-1
2.714273167E0,1.243636608E-1,2.437075227E-2,1.611979865E-2,1.277501531E-1
2.724293167E0,1.317864805E-1,1.685752161E-2,1.276642550E-2,1.334722222E-1
2.734313167E0,1.197676435E-1,3.253688291E-2,6.722382270E-3,1.242904968E-1
2.744334167E0,1.385743171E-1,-1.520959660E-3,1.094289124E-3,1.385869840E-1
2.754354167E0,1.422617286E-1,-1.635290124E-2,-5.905563477E-3,1.433202445E-1
2.764374167E0,1.430458724E-1,1.171278208E-2,-1.236415934E-3,1.435299258E-1
2.774394167E0,1.655091047E-1,-3.911364824E-2,-7.642375422E-4,1.700697659E-1
2.784415167E0,1.597926170E-1,-9.732388891E-3,-3.246578854E-3,1.601216416E-1
2.794435167E0,1.514103264E-1,-6.764828227E-3,-7.957178168E-3,1.517701107E-1
2.804455167E0,1.655212194E-1,-4.207877815E-2,-8.920029737E-3,1.710189012E-1
2.814476167E0,1.670378894E-1,-3.910056502E-2,-6.619324908E-3,1.716808846E-1
2.824496167E0,1.669075191E-1,-5.262120068E-2,-4.468428437E-3,1.750630673E-1
2.834516167E0,1.686814576E-1,-5.240921304E-2,-5.311052315E-3,1.767154974E-1
2.844536167E0,1.699637324E-1,-2.913812175E-2,-8.483460173E-3,1.726518739E-1
2.854557167E0,1.711589545E-1,1.396883628E-3,-6.446939893E-3,1.712860240E-1
2.864577167E0,1.672683209E-1,3.511842340E-2,-2.957960591E-3,1.709407628E-1
2.874597167E0,1.719797254E-1,4.788428545E-2,-2.120130230E-3,1.785341023E-1
2.884617167E0,1.702394336E-1,4.078971595E-2,-5.508838221E-4,1.750587592E-1
2.894638167E0,1.777093410E-1,1.582577452E-2,-6.616713945E-4,1.784138527E-1
2.904658167E0,1.610376537E-1,2.948605269E-2,2.818231005E-3,1.637391084E-1
2.914678167E0,1.779513806E-1,7.209507748E-3,4.991103895E-3,1.781672865E-1
2.924699167E0,1.691017300E-1,4.794316739E-2,1.927977428E-3,1.757773008E-1
2.934719167E0,1.838708222E-1,1.736741513E-2,9.179765359E-3,1.849172097E-1
2.944739167E0,1.714486927E-1,4.339426011E-2,1.426257938E-2,1.774292456E-1
2.954759167E0,1.790890247E-1,1.825748384E-2,1.482690312E-2,1.806268295E-1
2.964780167E0,1.772848964E-1,1.536468160E-3,1.927400567E-2,1.783361503E-1
2.974800167E0,1.931533515E-1,1.009961241E-3,1.902073994E-2,1.940902516E-1
2.984820167E0,1.701696366E-1,2.579410002E-2,2.571053617E-2,1.740231953E-1
2.994841167E0,1.931415349E-1,-6.826694123E-3,2.215308696E-2,1.945276729E-1
3.004861167E0,1.779416054E-1,-9.748332668E-4,2.554545552E-2,1.797685611E-1
3.014880750E0,1.926065683E-1,-1.991337165E-2,2.269960195E-2,1.949592380E-1
3.024900750E0,1.912174970E-1,-1.578699797E-2,1.864551753E-2,1.927719269E-1
3.034921750E0,2.070638388E-1,-1.626183838E-2,2.050014213E-2,2.087106527E-1
3.044941750E0,2.054085433E-1,6.940753665E-4,1.331371441E-2,2.058407307E-1
3.054961750E0,2.098349780E-1,-3.969652578E-3,1.657502167E-2,2.105260256E-1
3.064981750E0,2.137743533E-1,-1.121324673E-2,1.608742587E-2,2.146718805E-1
3.075002750E0,2.298223078E-1,-3.291481361E-2,1.138641499E-2,2.324463994E-1
3.085022750E0,2.170486897E-1,-2.638535108E-3,4.653388169E-3,2.171146002E-1
3.095042750E0,2.300619632E-1,-1.183762588E-2,8.864111267E-3,2.305367840E-1
3.105063750E0,2.226083428E-1,1.926630549E-2,6.874507293E-3,2.235462450E-1
3.115083750E0,2.331805527E-1,-3.148456570E-3,2.881896216E-3,2.332196138E-1
3.125103750E0,2.260808051E-1,-9.244584944E-4,2.751633292E-3,2.260994395E-1
3.135123750E0,2.263742834E-1,-2.071520686E-2,1.865865896E-3,2.273277754E-1
3.145144750E0,2.205415666E-1,-8.048648946E-3,-8.938297979E-4,2.206901953E-1
3.155164750E0,2.280822992E-1,-1.415208075E-2,1.142156892E-3,2.285237868E-1
3.165184750E0,2.135289013E-1,2.139225602E-2,-1.499476377E-3,2.146030493E-1
3.175204750E0,2.185782492E-1,2.518435009E-3,2.301653381E-3,2.186048745E-1
3.185225750E0,2.200014442E-1,3.944025375E-3,1.421478577E-3,2.200413856E-1
3.195245750E0,2.183824033E-1,2.348241024E-2,6.490721833E-3,2.197371774E-1
3.205265750E0,2.286478877E-1,3.727046773E-2,3.231894807E-4,2.316658127E-1
3.215286750E0,2.232930660E-1,3.517376259E-2,1.192711527E-3,2.260495730E-1
3.225306750E0,2.230279446E-1,-3.920455929E-4,2.609361429E-3,2.230435530E-1
3.235326750E0,2.295231372E-1,-1.885840483E-2,9.435542161E-4,2.302985025E-1
3.245346750E0,2.323087156E-1,-8.092066273E-3,1.208967529E-3,2.324527532E-1
3.255367750E0,2.349036932E-1,-1.111288927E-2,-3.866751213E-3,2.351981997E-1
3.265387750E0,2.351788282E-1,1.218311954E-2,-5.377261434E-3,2.355555658E-1
3.275407750E0,2.436088026E-1,2.027859539E-2,-3.162044333E-3,2.444718156E-1
3.285428750E0,2.413908094E-1,4.611327779E-3,-9.142025374E-3,2.416078721E-1
3.295448750E0,2.427026778E-1,-1.541963872E-2,-1.116842404E-2,2.434483288E-1
3.305468750E0,2.493902594E-1,-4.064420611E-2,-1.620621607E-2,2.531997125E-1
3.315488750E0,2.567392290E-1,-4.994183779E-2,-2.046461031E-2,2.623509465E-1
3.325509750E0,2.602275312E-1,-4.962771013E-2,-2.361104637E-2,2.659675903E-1
3.335529750E0,2.612419128E-1,-3.883604705E-2,-2.561640553E-2,2.653521732E-1
3.345549750E0,2.633910477E-1,-3.097473085E-2,-2.858374640E-2,2.667420262E-1
3.355569750E0,2.646094561E-1,-2.730249614E-2,-2.950040624E-2,2.676450345E-1
3.365590750E0,2.674558461E-1,-1.493437588E-2,-2.577785775E-2,2.691099462E-1
3.375610750E0,2.662741840E-1,-8.150238544E-3,-2.269844338E-2,2.673641464E-1
3.385630750E0,2.651712000E-1,-5.290323403E-3,-2.019014396E-2,2.659913434E-1
3.395651750E0,2.656100988E-1,2.413402777E-3,-1.900210790E-2,2.662998859E-1
3.405671750E0,2.665634155E-1,9.201569483E-3,-1.662825793E-2,2.672400089E-1
3.415691750E0,2.641513944E-1,1.756868884E-2,-1.328705624E-2,2.650682249E-1
3.425711750E0,2.711341679E-1,2.494984120E-2,-1.511536539E-2,2.726989290E-1
3.435732750E0,2.697903514E-1,2.481535077E-2,-1.296859048E-2,2.712394139E-1
3.445752750E0,2.667809725E-1,8.427856490E-3,-1.109771989E-2,2.671446713E-1
3.455772750E0,2.725133896E-1,-5.567595363E-3,-9.075083770E-3,2.727212914E-1
3.465792750E0,2.609473467E-1,-4.958575591E-3,-1.067824289E-2,2.612128061E-1
3.475813750E0,2.675871551E-1,-4.225407261E-3,-1.309639309E-2,2.679407680E-1
3.485833750E0,2.499095649E-1,9.509901516E-3,-1.174010895E-2,2.503658503E-1
3.495853750E0,2.713722587E-1,1.293499302E-2,-1.155954599E-2,2.719261663E-1
3.505874750E0,2.660679817E-1,4.179026186E-2,-9.555563331E-3,2.694993612E-1
3.515894750E0,2.762572169E-1,4.211303592E-2,-8.734244853E-3,2.795851297E-1
3.525914750E0,2.673407495E-1,3.792177141E-2,-9.427662939E-3,2.701814537E-1
3.535934750E0,2.645239234E-1,1.948683709E-2,-1.125911903E-2,2.654795861E-1
3.545955750E0,2.627213895E-1,4.800075665E-3,-1.433756016E-2,2.631561036E-1
3.555975750E0,2.676322460E-1,-2.021472901E-2,-1.736956835E-2,2.689560490E-1
3.565995750E0,2.691631615E-1,-2.347740717E-2,-2.061746642E-2,2.709706185E-1
3.576015750E0,2.677279711E-1,-1.799449138E-2,-2.125316299E-2,2.691723707E-1
3.586036750E0,2.610956728E-1,-1.162207127E-2,-2.603590116E-2,2.626478461E-1
3.596056750E0,2.558431327E-1,-1.208199933E-2,-2.336901054E-2,2.571921343E-1
3.606076750E0,2.457326651E-1,-1.753462665E-2,-2.286784723E-2,2.474165400E-1
3.616097750E0,2.415445745E-1,-1.808430254E-2,-2.082573622E-2,2.431142422E-1
3.626117750E0,2.345080376E-1,-6.826905534E-3,-2.272291109E-2,2.357052333E-1
3.636137750E0,2.263683528E-1,-1.155437669E-3,-1.453662012E-2,2.268375619E-1
3.646157750E0,2.212105989E-1,1.279938221E-2,-1.402237359E-2,2.220238281E-1
3.656178750E0,2.109276056E-1,2.014677785E-2,-1.306257024E-2,2.122898448E-1
3.666198750E0,2.031618059E-1,2.367433533E-2,-1.124258246E-2,2.048452811E-1
3.676218750E0,2.019644380E-1,1.818662696E-2,-1.125696301E-2,2.030938375E-1
3.686238750E0,1.999096125E-1,1.112699229E-2,-9.041389450E-3,2.004230772E-1
3.696259750E0,1.940706372E-1,8.088591509E-3,-1.126459613E-2,1.945654868E-1
3.706279750E0,1.917745173E-1,1.891244086E-3,-1.175111718E-2,1.921435168E-1
3.716299750E0,1.877624691E-1,3.468634328E-3,-1.070635952E-2,1.880994480E-1
3.726320750E0,1.889493465E-1,7.033849135E-3,-8.460876532E-3,1.892694297E-1
3.736340750E0,1.923424751E-1,1.549258083E-2,-8.705621585E-3,1.931616826E-1
3.746360750E0,1.900793612E-1,2.342428267E-2,-7.324470673E-3,1.916572682E-1
3.756380750E0,1.926461160E-1,2.691382170E-2,-7.136451546E-3,1.946479097E-1
3.766401750E0,2.005246282E-1,3.349605203E-2,-1.669420395E-3,2.033098595E-1
3.776421750E0,2.019725889E-1,4.844570532E-2,4.603094712E-4,2.077020099E-1
3.786441750E0,2.071005851E-1,1.914494857E-2,3.326759208E-3,2.080102130E-1
3.796462750E0,1.966628581E-1,4.990932066E-4,-1.050146064E-3,1.966662952E-1
3.806482750E0,1.930670589E-1,-8.638006635E-3,-5.183240282E-4,1.932608938E-1
3.816502750E0,1.973571479E-1,4.886324052E-3,-1.091170125E-3,1.974206439E-1
3.826522750E0,1.952575147E-1,-8.250048384E-3,-4.438240547E-3,1.954821177E-1
3.836543750E0,1.850133985E-1,-1.571622118E-2,-4.484579433E-3,1.857338652E-1
3.846563750E0,1.808925569E-1,-3.619024158E-2,-9.625929408E-3,1.847282037E-1
3.856583750E0,1.734173298E-1,-3.768027946E-2,-9.175056592E-3,1.777007467E-1
3.866603750E0,1.687200963E-1,-1.526769623E-2,-1.173216477E-2,1.698152442E-1
3.876624750E0,1.655389518E-1,-2.140122280E-2,-1.468933932E-2,1.675617306E-1
3.886644750E0,1.410942972E-1,-1.422241330E-2,-1.179238781E-2,1.422987637E-1
3.896664750E0,1.430101842E-1,-3.263258189E-2,-1.335007045E-2,1.472923031E-1
3.906685750E0,1.374266297E-1,-1.928167790E-2,-1.311834995E-2,1.393913654E-1
3.916705750E0,1.243587658E-1,-5.860144272E-3,-1.666940935E-2,1.256077749E-1
3.926725750E0,1.245245785E-1,-7.421581075E-3,-1.719921455E-2,1.259256268E-1
3.936745750E0,1.187029108E-1,-9.785402566E-3,-1.996384189E-2,1.207670904E-1
3.946766750E0,1.197512671E-1,8.211208507E-3,-1.668136008E-2,1.211860458E-1
3.956786750E0,1.177323237E-1,2.672365867E-3,-1.808457822E-2,1.191431641E-1
3.966806750E0,1.155782267E-1,-3.515579738E-4,-1.627800800E-2,1.167194227E-1
3.976826750E0,1.131736562E-1,-7.467524149E-3,-1.664659008E-2,1.146348522E-1
3.986847750E0,1.117895693E-1,-3.286036663E-3,-1.701469719E-2,1.131247354E-1
3.996867750E0,1.126079634E-1,-8.131658658E-3,-1.963258535E-2,1.145954436E-1
4.006887750E0,1.156966686E-1,1.433543628E-3,-2.547796816E-2,1.184774284E-1
4.016909250E0,1.155408770E-1,6.734183989E-5,-2.162277699E-2,1.175467706E-1
4.026929250E0,1.106126234E-1,-5.772232544E-4,-1.688988507E-2,1.118961745E-1
4.036949250E0,1.121362224E-1,-1.756472886E-2,-1.893332787E-2,1.150718166E-1
4.046969250E0,1.078973040E-1,-1.266423799E-2,-1.887976378E-2,1.102662986E-1
4.056990250E0,1.128188297E-1,1.305017993E-2,-1.524641365E-2,1.145899152E-1
4.067010250E0,1.171409711E-1,2.547737584E-2,-1.041559223E-2,1.203311612E-1
4.077030250E0,1.091261879E-1,3.430468962E-2,-6.923655514E-3,1.146004957E-1
4.087050250E0,1.113957912E-1,3.005276993E-2,-8.007252589E-3,1.156559872E-1
4.097071250E0,1.036305502E-1,9.425790049E-3,-9.365730919E-3,1.044789614E-1
4.107091250E0,1.016632989E-1,7.423900999E-3,-5.791201722E-3,1.020983774E-1
4.117111250E0,1.169343963E-1,-9.024720639E-4,-2.694478258E-3,1.169689177E-1
4.127132250E0,9.560480714E-2,9.103241609E-4,-5.819233134E-3,9.578607055E-2
4.137152250E0,1.012475118E-1,-2.611037344E-2,-5.837609060E-3,1.047229102E-1
4.147172250E0,8.859428018E-2,-1.815239340E-2,-6.175306626E-3,9.064540959E-2
4.157192250E0,8.935540915E-2,-1.499068737E-2,-7.872805931E-3,9.094553823E-2
4.167213250E0,9.067503363E-2,-1.529481262E-2,-7.987020537E-3,9.230214252E-2
4.177233250E0,6.678541750E-2,-7.165247574E-3,-1.019025315E-2,6.793728006E-2
4.187253250E0,7.402236015E-2,-1.233881619E-2,-8.850367740E-3,7.556378230E-2
4.197274250E0,6.481608003E-2,-1.287411153E-2,-4.801298026E-3,6.625646717E-2
4.207294250E0,5.545276776E-2,-1.238679513E-2,-8.512022323E-4,5.682575729E-2
4.217314250E0,5.099277198E-2,-5.771236960E-3,-4.077858175E-4,5.131994018E-2
4.227334250E0,3.994591534E-2,3.635224188E-3,-1.191396732E-4,4.011116056E-2
4.237355250E0,3.656876087E-2,9.540251456E-3,-1.708050258E-4,3.779311900E-2
4.247375250E0,2.759274468E-2,9.705549106E-3,3.101306269E-3,2.941386311E-2
4.257395250E0,2.828729711E-2,5.766467191E-3,3.559636418E-3,2.908770072E-2
4.267415250E0,2.896533720E-2,1.081448887E-2,2.374795964E-3,3.100941122E-2
4.277436250E0,2.549950033E-2,9.343891405E-3,2.189972438E-3,2.724571165E-2
4.287456250E0,2.466093563E-2,4.528174642E-3,1.870206790E-3,2.514286748E-2
4.297476250E0,2.072851174E-2,1.684983959E-3,3.488876158E-3,2.108749930E-2
4.307497250E0,2.030719630E-2,-3.141125198E-3,4.945332184E-3,2.113540157E-2
4.317517250E0,2.099535614E-2,-2.955502830E-3,3.749572439E-3,2.153135551E-2
4.327537250E0,2.088101208E-2,6.796899252E-3,5.898932926E-3,2.273789600E-2
4.337557250E0,2.494473010E-2,4.252027720E-2,7.917342708E-3,4.992892798E-2
4.347578250E0,2.253423631E-2,1.145395357E-2,9.759914130E-3,2.709687772E-2
4.357598250E0,1.478283945E-2,6.862930022E-3,1.026058849E-2,1.925907129E-2
4.367618250E0,2.215712890E-2,-1.018675789E-2,1.341375336E-2,2.783230455E-2
4.377638250E0,1.840127259E-2,-3.219662700E-3,1.620474644E-2,2.472987805E-2
4.387659250E0,2.209158428E-2,1.820820034E-3,1.534054521E-2,2.695711055E-2
4.397679250E0,2.392810024E-2,3.302070312E-3,1.538209058E-2,2.863680080E-2
4.407699250E0,2.271542884E-2,-6.642065011E-3,1.228440925E-2,2.666485413E-2
4.417720250E0,2.401105687E-2,-1.173269749E-2,1.008703560E-2,2.856458173E-2
4.427740250E0,2.340565249E-2,-1.791185699E-2,1.288757753E-2,3.216751225E-2
4.437760250E0,2.000666037E-2,-1.671796106E-2,1.171152573E-2,2.858175145E-2
4.447780250E0,2.039062418E-2,-9.627637453E-3,1.324968599E-2,2.615383597E-2
4.457801250E0,2.475208230E-2,4.580197856E-4,1.352372579E-2,2.820933391E-2
4.467821250E0,2.166631259E-2,9.212040342E-3,6.213639397E-3,2.434954010E-2
4.477841250E0,2.249135822E-2,3.138285503E-2,1.201959699E-2,4.043779787E-2
4.487862250E0,4.074652866E-2,2.385129407E-2,1.288754214E-2,4.894131760E-2
4.497882250E0,2.723710984E-2,8.985263295E-3,1.585776545E-2,3.277291311E-2
4.507902250E0,2.874159440E-2,-4.649041221E-3,1.262955181E-2,3.173638940E-2
4.517922250E0,3.068730049E-2,-3.670063103E-3,1.026652846E-2,3.256656846E-2
4.527943250E0,2.657384984E-2,4.905143753E-3,9.452970698E-3,2.862845762E-2
4.537963250E0,2.858826518E-2,-8.854991756E-5,5.908569787E-3,2.919260084E-2
4.547983250E0,3.025220893E-2,-5.981198512E-3,7.680656854E-3,3.177992087E-2
4.558003250E0,2.816562168E-2,-9.807095863E-3,7.847903296E-3,3.083943839E-2
4.568024250E0,2.752529830E-2,-1.036365982E-2,4.778517876E-3,2.979734425E-2
4.578044250E0,2.158271894E-2,-4.905227106E-4,4.878386855E-3,2.213262360E-2
4.588064250E0,2.248683013E-2,1.002922282E-2,3.851170652E-3,2.492136343E-2
4.598085250E0,2.144633234E-2,1.443515625E-2,1.698271139E-3,2.590758637E-2
4.608105250E0,2.049981430E-2,1.419753395E-2,7.298995042E-4,2.494684569E-2
4.618125250E0,1.482195407E-2,4.376861267E-3,6.939468440E-4,1.547025531E-2
4.628145250E0,1.280723885E-2,-6.346364040E-3,-9.037181735E-4,1.432195552E-2
4.638166250E0,1.229351573E-2,-1.172248833E-2,-2.686171792E-3,1.719775510E-2
4.648186250E0,1.361107919E-2,-1.159483939E-2,-4.908123519E-4,1.788694144E-2
4.658206250E0,1.216924377E-2,-7.462678477E-3,1.909568673E-4,1.427650267E-2
4.668226250E0,1.092051528E-2,5.726264790E-4,3.664782038E-3,1.153326418E-2
4.678247250E0,1.279085316E-2,1.575557515E-2,6.455774419E-3,2.129603475E-2
4.688267250E0,1.232040860E-2,1.904007047E-2,6.302020978E-3,2.353788903E-2
4.698287250E0,6.810062565E-3,1.764031313E-2,6.537710782E-3,2.000748015E-2
4.708308250E0,2.034919802E-3,1.153487433E-2,6.592444144E-3,1.344077915E-2
4.718328250E0,1.258157007E-2,1.120277774E-2,5.721856840E-3,1.779150866E-2
4.728348250E0,-1.024921052E-2,1.965058222E-2,-7.826822111E-4,2.217666092E-2
4.738368250E0,-7.763416041E-3,-7.387160324E-3,-3.920951393E-3,1.141116235E-2
4.748389250E0,-4.451101646E-2,4.886680283E-3,-1.642293413E-3,4.480856344E-2
4.758409250E0,-5.557272211E-2,-4.163794592E-2,-3.920894116E-3,6.955155925E-2
4.768429250E0,-9.871938825E-2,-3.412402421E-2,-8.037107065E-3,1.047595424E-1
4.778449250E0,-1.451702416E-1,-2.203300595E-2,-8.185445331E-3,1.470607151E-1
4.788470250E0,-2.096255720E-1,4.461461678E-2,-1.235503238E-2,2.146764805E-1
4.798490250E0,-2.786647975E-1,7.726230472E-2,-1.982759684E-2,2.898562863E-1
4.808510250E0,-3.620942831E-1,5.575034022E-2,-2.659635618E-2,3.673251100E-1
4.818531250E0,-4.290562570E-1,-3.750801552E-3,-3.198792785E-2,4.302633702E-1
4.828551250E0,-5.058342218E-1,-2.692925371E-2,-3.622889891E-2,5.078444425E-1
4.838571250E0,-5.726337433E-1,-2.747866325E-2,-4.078822955E-2,5.747418208E-1
4.848591250E0,-6.470242143E-1,4.078038968E-3,-3.799439594E-2,6.481516322E-1
4.858612250E0,-6.839356422E-1,2.981482819E-2,-3.720157593E-2,6.855952479E-1
4.868632250E0,-7.758271694E-1,1.008114684E-2,-4.056293517E-2,7.769522367E-1
4.878652250E0,-8.378695250E-1,-2.099234983E-2,-4.234698415E-2,8.392015769E-1
4.888673250E0,-9.100224376E-1,-2.319177240E-2,-3.726939484E-2,9.110805140E-1
4.898693250E0,-9.482499957E-1,-2.311560698E-2,-3.684036061E-2,9.492468582E-1
4.908713250E0,-1.013650775E0,-1.416803710E-2,-3.188280016E-2,1.014251024E0
4.918733250E0,-1.071249127E0,-6.694940850E-3,-2.468667179E-2,1.071554454E0
4.928754250E0,-1.121738315E0,-5.564867985E-3,-2.128733695E-2,1.121954083E0
4.938774250E0,-1.179543495E0,-9.208871052E-3,-7.682845462E-3,1.179604462E0
4.948794250E0,-1.230025053E0,-1.437833346E-2,-1.296052476E-3,1.230109770E0
4.958814250E0,-1.272440672E0,-1.403664984E-2,6.831116509E-3,1.272536426E0
4.968835250E0,-1.319934964E0,-1.999413222E-2,1.870085858E-2,1.320218844E0
4.978855250E0,-1.359860778E0,-2.064074762E-2,2.842113003E-2,1.360314352E0
4.988875250E0,-1.400302887E0,-1.346267015E-2,4.336649552E-2,1.401038926E0
4.998896250E0,-1.430230141E0,-8.836492896E-3,5.188621581E-2,1.431198281E0
5.008916250E0,-1.466157556E0,-1.560902223E-2,6.475104392E-2,1.467669689E0
5.018935875E0,-1.502016187E0,-1.225716714E-2,7.650090754E-2,1.504013049E0
5.028955875E0,-1.532144904E0,-1.281113457E-2,8.713930100E-2,1.534674360E0
5.038976875E0,-1.558295012E0,-1.543354988E-2,9.669631720E-2,1.561368539E0
5.048996875E0,-1.579515576E0,-8.189180866E-3,1.086586118E-1,1.583269785E0
5.059016875E0,-1.599296451E0,-7.664804347E-3,1.173762009E-1,1.603616244E0
5.069036875E0,-1.615666747E0,-1.373012550E-2,1.303749681E-1,1.620976615E0
5.079057875E0,-1.628791094E0,-1.029438246E-2,1.391844451E-1,1.634759527E0
5.089077875E0,-1.640109420E0,-9.626086801E-3,1.484027803E-1,1.646837866E0
5.099097875E0,-1.651152015E0,-9.939542040E-3,1.607244313E-1,1.658985869E0
5.109118875E0,-1.655980468E0,-1.002368983E-2,1.651405096E-1,1.664224496E0
5.119138875E0,-1.649992108E0,-1.100000460E-2,1.761662662E-1,1.659406373E0
5.129158875E0,-1.651554823E0,-3.100801958E-3,1.831014007E-1,1.661676584E0
5.139178875E0,-1.647193909E0,-7.121376693E-3,1.885986924E-1,1.657971035E0
5.149199875E0,-1.641668439E0,-6.736775860E-3,1.939637959E-1,1.653100905E0
5.159219875E0,-1.627476454E0,-6.453681737E-3,2.005135715E-1,1.639794789E0
5.169239875E0,-1.611280799E0,-1.072978135E-3,2.028217316E-1,1.623996188E0
5.179260875E0,-1.595930576E0,5.148698576E-3,2.062516063E-1,1.609211185E0
5.189280875E0,-1.569681406E0,4.782929085E-3,2.028622180E-1,1.582743085E0
5.199300875E0,-1.548662663E0,7.080970798E-3,2.053091228E-1,1.562228542E0
5.209320875E0,-1.519843340E0,1.263598260E-2,2.030946612E-1,1.533404998E0
5.219341875E0,-1.497573972E0,1.024020277E-2,2.028730959E-1,1.511287582E0
5.229361875E0,-1.464855313E0,1.086741127E-2,1.966768503E-1,1.478039571E0
5.239381875E0,-1.424553394E0,5.798351020E-3,1.938467026E-1,1.437693479E0
5.249401875E0,-1.392546654E0,1.312746014E-2,1.885460764E-1,1.405314248E0
5.259422875E0,-1.352230430E0,1.368938759E-2,1.833164245E-1,1.364668255E0
5.269442875E0,-1.312389374E0,1.172546484E-2,1.739725471E-1,1.323922128E0
5.279462875E0,-1.271075726E0,1.383602060E-2,1.660791934E-1,1.281954459E0
5.289483875E0,-1.221988320E0,8.637476712E-3,1.580000967E-1,1.232190769E0
5.299503875E0,-1.170524836E0,7.447842509E-3,1.477077752E-1,1.179831110E0
5.309523875E0,-1.120914459E0,8.635870181E-3,1.393477470E-1,1.129575849E0
5.319543875E0,-1.065570951E0,8.141587488E-3,1.291353256E-1,1.073398187E0
5.329564875E0,-1.014763951E0,1.039163396E-2,1.180454418E-1,1.021659723E0
5.339584875E0,-9.569907188E-1,9.787629358E-3,1.105374619E-1,9.634031161E-1
5.349604875E0,-8.979060054E-1,7.352588698E-3,1.008862108E-1,9.035857915E-1
5.359624875E0,-8.395899534E-1,4.781839438E-3,9.138298780E-2,8.445620204E-1
5.369645875E0,-7.758682966E-1,3.152439371E-3,7.718937099E-2,7.797049125E-1
5.379665875E0,-7.165461183E-1,3.543924075E-3,7.065796852E-2,7.200301712E-1
5.389685875E0,-6.478916407E-1,5.365144461E-3,5.489133298E-2,6.502348970E-1
5.399706875E0,-5.816103220E-1,2.760040574E-3,4.184424132E-2,5.831201634E-1
5.409726875E0,-5.174595118E-1,1.643527299E-3,3.256850317E-2,5.184860219E-1
5.419746875E0,-4.467832148E-1,-3.866003826E-4,2.050545253E-2,4.472536910E-1
5.429766875E0,-3.809036314E-1,-1.944047166E-3,1.121631730E-2,3.810736957E-1
5.439787875E0,-3.148207366E-1,-3.552064067E-3,-2.938649268E-4,3.148409118E-1
5.449807875E0,-2.502190173E-1,-6.600569934E-3,-8.937084116E-3,2.504655577E-1
5.459827875E0,-1.775914431E-1,-7.329210639E-3,-1.997642033E-2,1.788616654E-1
5.469847875E0,-1.042078361E-1,-6.371344440E-3,-2.856519632E-2,1.082397227E-1
5.479868875E0,-3.428334370E-2,-3.450389486E-3,-3.563562408E-2,4.956965349E-2
5.489888875E0,4.067405686E-2,-1.120641362E-3,-4.354673624E-2,5.959826319E-2
5.499908875E0,1.071580052E-1,-2.853293903E-3,-5.084220320E-2,1.186419361E-1
5.509929875E0,1.744976342E-1,-9.064112790E-3,-5.821038038E-2,1.841739147E-1
5.519949875E0,2.419171631E-1,-1.720806025E-2,-6.354948878E-2,2.507161117E-1
5.529969875E0,3.067621589E-1,-1.870917156E-2,-7.464822382E-2,3.162679442E-1
5.539989875E0,3.792800307E-1,-1.569633745E-2,-8.420071751E-2,3.888309113E-1
5.550010875E0,4.448015988E-1,-3.435843857E-3,-9.189108759E-2,4.542072647E-1
5.560030875E0,5.084383488E-1,1.525891479E-3,-9.722140431E-2,5.176522813E-1
5.570050875E0,5.749428272E-1,2.315642778E-3,-1.025759354E-1,5.840260605E-1
5.580071875E0,6.376994252E-1,2.407788299E-3,-1.055437624E-1,6.463790221E-1
5.590091875E0,6.972897649E-1,-3.945306875E-3,-1.091427803E-1,7.057908530E-1
5.600111875E0,7.557206154E-1,-7.347228006E-3,-1.162946969E-1,7.646516114E-1
5.610131875E0,8.134022951E-1,-9.480404668E-3,-1.230228394E-1,8.227075974E-1
5.620152875E0,8.701540232E-1,-1.332995715E-3,-1.237086058E-1,8.789047844E-1
5.630172875E0,9.274790883E-1,7.607557345E-3,-1.251230389E-1,9.359119131E-1
5.640192875E0,9.885424376E-1,8.303174749E-3,-1.286434680E-1,9.969123509E-1
5.650212875E0,1.039223909E0,8.303578012E-3,-1.282962114E-1,1.047146218E0
5.660233875E0,1.085157871E0,3.728267038E-3,-1.322888285E-1,1.093197987E0
5.670253875E0,1.132292628E0,8.017057553E-5,-1.318302900E-1,1.139941151E0
5.680273875E0,1.177098870E0,4.272252321E-3,-1.308459938E-1,1.184356651E0
5.690294875E0,1.220007181E0,7.050377317E-3,-1.296351701E-1,1.226895475E0
5.700314875E0,1.268097162E0,1.129811909E-2,-1.316147000E-1,1.274959015E0
5.710334875E0,1.302888632E0,1.295126416E-2,-1.295597851E-1,1.309378578E0
5.720354875E0,1.338622212E0,1.289667003E-2,-1.292122453E-1,1.344905780E0
5.730375875E0,1.370078325E0,7.510086056E-3,-1.296986192E-1,1.376224092E0
5.740395875E0,1.397845507E0,7.574268151E-3,-1.265939027E-1,1.403586637E0
5.750415875E0,1.424533010E0,6.172691472E-3,-1.252378821E-1,1.430040882E0
5.760435875E0,1.449822068E0,3.108991077E-3,-1.252738237E-1,1.455227551E0
5.770456875E0,1.473171592E0,-1.288103638E-3,-1.245116517E-1,1.478424617E0
5.780476875E0,1.490202785E0,6.934938952E-3,-1.232860684E-1,1.495309964E0
5.790496875E0,1.511337757E0,6.846637465E-3,-1.241520196E-1,1.516444004E0
5.800517875E0,1.525678635E0,1.088798419E-2,-1.248196810E-1,1.530814749E0
5.810537875E0,1.532248855E0,1.297868043E-2,-1.241168827E-1,1.537322347E0
5.820557875E0,1.539430618E0,1.427271124E-2,-1.252108961E-1,1.544580237E0
5.830577875E0,1.543189526E0,3.283435479E-3,-1.254402399E-1,1.548282903E0
5.840598875E0,1.544276953E0,1.921494957E-3,-1.249946877E-1,1.549328458E0
5.850618875E0,1.541388154E0,8.626528084E-3,-1.268624067E-1,1.546624042E0
5.860638875E0,1.536293626E0,6.190268323E-3,-1.271260530E-1,1.541556829E0
5.870659875E0,1.526365995E0,7.775232196E-3,-1.306098551E-1,1.531963622E0
5.880679875E0,1.517040730E0,8.570984937E-3,-1.297227591E-1,1.522601074E0
5.890699875E0,1.497869968E0,3.005260834E-3,-1.320678741E-1,1.503683942E0
5.900719875E0,1.486630917E0,6.361128762E-4,-1.299224198E-1,1.492297464E0
5.910740875E0,1.461904168E0,3.215265926E-3,-1.324054301E-1,1.467891458E0
5.920760875E0,1.440512896E0,5.872834474E-3,-1.282716691E-1,1.446224572E0
5.930780875E0,1.413955092E0,1.760814572E-3,-1.287749261E-1,1.419808116E0
5.940800875E0,1.386164188E0,3.422893584E-3,-1.300471127E-1,1.392255409E0
5.950821875E0,1.357158422E0,1.962874550E-3,-1.265315264E-1,1.363045511E0
5.960841875E0,1.321237445E0,9.574188851E-3,-1.297443658E-1,1.327627075E0
5.970861875E0,1.287414670E0,-3.034530440E-3,-1.268228143E-1,1.293649785E0
5.980882875E0,1.252034068E0,-4.616980441E-3,-1.279650480E-1,1.258564928E0
5.990902875E0,1.208290458E0,3.684898838E-4,-1.256026775E-1,1.214801218E0
6.000922875E0,1.160924792E0,7.541714236E-3,-1.238047779E-1,1.167531958E0
6.010942875E0,1.120691419E0,3.798907623E-3,-1.196691543E-1,1.127068939E0
6.020966000E0,1.072937489E0,-3.443821333E-5,-1.156980842E-1,1.079157496E0
6.030986000E0,1.020575047E0,2.698130440E-3,-1.093785465E-1,1.026423096E0
6.041006000E0,9.714195132E-1,1.341249910E-3,-1.082544252E-1,9.774337268E-1
6.051026000E0,9.213638902E-1,-1.993944636E-3,-1.037282944E-1,9.271865794E-1
6.061047000E0,8.640300632E-1,4.123868886E-3,-9.771168232E-2,8.695473128E-1
6.071067000E0,8.103431463E-1,6.406220607E-3,-9.362282604E-2,8.157587192E-1
6.081087000E0,7.576075196E-1,6.191569846E-3,-8.786427230E-2,7.627107051E-1
6.091108000E0,6.965792179E-1,-2.294090809E-3,-8.309336007E-2,7.015214723E-1
6.101128000E0,6.372218728E-1,2.382952487E-3,-7.450094074E-2,6.415666636E-1
6.111148000E0,5.770215988E-1,-2.574319486E-3,-6.383445859E-2,5.805474922E-1
6.121168000E0,5.146487951E-1,-3.263452090E-4,-5.782423168E-2,5.178871794E-1
6.131189000E0,4.523079395E-1,-4.571359605E-3,-4.950184375E-2,4.550316495E-1
6.141209000E0,3.875113726E-1,-6.078708917E-3,-4.274008051E-2,3.899086163E-1
6.151229000E0,3.233131170E-1,-3.641940188E-3,-3.426413983E-2,3.251440706E-1
6.161250000E0,2.608646750E-1,-2.605437767E-3,-2.389219403E-2,2.619694714E-1
6.171270000E0,1.987381876E-1,-1.215406461E-3,-1.627229713E-2,1.994069509E-1
6.181290000E0,1.352998316E-1,2.059482737E-3,-8.822372183E-3,1.356028029E-1
6.191310000E0,6.734358519E-2,1.096861158E-2,1.715199905E-4,6.823121225E-2
6.201331000E0,-1.050122548E-3,6.082510110E-3,5.452568177E-3,8.235908349E-3
6.211351000E0,-6.197459251E-2,-1.528461277E-2,1.700979285E-2,6.605908383E-2
6.221371000E0,-1.284841150E-1,-1.307152584E-2,2.382588573E-2,1.313267125E-1
6.231391000E0,-1.887247115E-1,-2.219597809E-5,2.902258374E-2,1.909432576E-1
6.241412000E0,-2.509779632E-1,1.377883740E-2,3.841901198E-2,2.542750771E-1
6.251432000E0,-3.117819130E-1,2.015211992E-2,4.690815136E-2,3.159342398E-1
6.261452000E0,-3.694715500E-1,1.880056597E-2,5.305952206E-2,3.737352009E-1
6.271473000E0,-4.311060905E-1,8.212976158E-3,6.250530481E-2,4.356912065E-1
6.281493000E0,-4.916477501E-1,7.273626979E-4,7.424212247E-2,4.972222159E-1
6.291513000E0,-5.457701683E-1,-2.361241961E-3,8.188450336E-2,5.518837957E-1
6.301533000E0,-6.008403301E-1,2.541371156E-3,8.876557648E-2,6.073671776E-1
6.311554000E0,-6.576327682E-1,-6.664910354E-3,9.821047634E-2,6.649590788E-1
6.321574000E0,-7.091771960E-1,1.318069920E-2,1.143380478E-1,7.184561332E-1
6.331594000E0,-7.535063624E-1,1.051253453E-2,1.174768209E-1,7.626815555E-1
6.341614000E0,-8.117568493E-1,8.660038933E-3,1.194084138E-1,8.205379625E-1
6.351635000E0,-8.582265377E-1,4.790426698E-3,1.249500141E-1,8.672878670E-1
6.361655000E0,-9.044275880E-1,4.164051265E-3,1.281365007E-1,9.134689727E-1
6.371675000E0,-9.502806067E-1,5.425508134E-3,1.302440315E-1,9.591799495E-1
6.381696000E0,-1.002305031E0,8.452989161E-3,1.350622177E-1,1.011399343E0
6.391716000E0,-1.034755468E0,1.495983917E-2,1.384013593E-1,1.044077398E0
6.401736000E0,-1.077884316E0,4.301069304E-3,1.408855617E-1,1.087061102E0
6.411756000E0,-1.112044692E0,1.155588217E-2,1.396770924E-1,1.120841927E0
6.421777000E0,-1.149600267E0,5.256019067E-4,1.418488920E-1,1.158318678E0
6.431797000E0,-1.184990048E0,-1.123921480E-3,1.470079124E-1,1.194074539E0
6.441817000E0,-1.216794014E0,4.526241217E-3,1.428552568E-1,1.225159493E0
6.451838000E0,-1.242125273E0,7.582194172E-3,1.410332769E-1,1.250129221E0
6.461858000E0,-1.276587486E0,6.528114900E-3,1.414979994E-1,1.284422014E0
6.471878000E0,-1.301538229E0,1.121984213E-3,1.386099160E-1,1.308898670E0
6.481898000E0,-1.320877314E0,3.850874491E-4,1.343397945E-1,1.327691307E0
6.491919000E0,-1.339211345E0,8.262444288E-3,1.329525262E-1,1.345820073E0
6.501939000E0,-1.358972788E0,1.226437651E-2,1.302419603E-1,1.365254709E0
6.511959000E0,-1.371163964E0,1.339599863E-2,1.266389191E-1,1.377064808E0
6.521980000E0,-1.383229375E0,1.121327095E-2,1.257331669E-1,1.388977347E0
6.532000000E0,-1.393858194E0,6.192330271E-3,1.189553067E-1,1.398938661E0
6.542020000E0,-1.400236726E0,3.632233711E-3,1.169542074E-1,1.405117208E0
6.552040000E0,-1.407835603E0,-1.634920016E-3,1.145716831E-1,1.412490859E0
6.562061000E0,-1.406429172E0,-6.882412359E-3,1.065073684E-1,1.410473042E0
6.572081000E0,-1.401922584E0,-2.700458514E-3,1.071542203E-1,1.406014313E0
6.582101000E0,-1.398393393E0,9.559420869E-5,1.059555262E-1,1.402401748E0
6.592121000E0,-1.390859842E0,3.066013800E-3,1.002824157E-1,1.394473759E0
6.602142000E0,-1.378421545E0,-2.233410487E-3,9.775028378E-2,1.381884967E0
6.612162000E0,-1.367705226E0,-1.506563509E-3,9.575029463E-2,1.371053600E0
6.622182000E0,-1.356068850E0,-8.759268094E-4,9.279738367E-2,1.359240540E0
6.632203000E0,-1.337381124E0,-1.910345163E-3,9.253725410E-2,1.340580123E0
6.642223000E0,-1.317764521E0,-6.783663295E-3,8.949884772E-2,1.320817699E0
6.652243000E0,-1.298665047E0,-3.968010657E-3,9.012930840E-2,1.301794892E0
6.662263000E0,-1.272307992E0,-2.438823693E-3,8.841396123E-2,1.275378612E0
6.672284000E0,-1.246021748E0,-2.847817959E-3,8.397234976E-2,1.248851337E0
6.682304000E0,-1.209507942E0,5.437177606E-4,8.322240412E-2,1.212367818E0
6.692324000E0,-1.183513165E0,-1.389276236E-3,8.420041949E-2,1.186505395E0
6.702344000E0,-1.141505480E0,-2.058528364E-3,7.719684392E-2,1.144114658E0
6.712365000E0,-1.112020493E0,-3.729135962E-3,7.637921721E-2,1.114646701E0
6.722385000E0,-1.063050389E0,-4.965375178E-3,7.720506191E-2,1.065861814E0
6.732405000E0,-1.039004803E0,-2.793638967E-3,6.917714328E-2,1.041308917E0
6.742426000E0,-9.809457064E-1,-9.395615198E-3,7.231301814E-2,9.836523415E-1
6.752446000E0,-9.460451007E-1,-7.979582995E-3,7.430999726E-2,9.489926143E-1
6.762466000E0,-8.901607394E-1,-1.242585015E-3,7.048090547E-2,8.929475035E-1
6.772486000E0,-8.500994444E-1,-7.354935631E-3,6.802701205E-2,8.528486588E-1
6.782507000E0,-7.947376370E-1,-4.686980508E-3,6.555026770E-2,7.974501346E-1
6.792527000E0,-7.490269542E-1,-4.095186479E-3,6.653741002E-2,7.519876166E-1
6.802547000E0,-6.933426857E-1,1.511033624E-3,6.402844191E-2,6.962944811E-1
6.812568000E0,-6.437619925E-1,1.191148418E-3,6.314942986E-2,6.468529758E-1
6.822588000E0,-5.889368057E-1,2.220726572E-3,6.507143378E-2,5.925249229E-1
6.832608000E0,-5.299851894E-1,2.843146911E-3,5.992265046E-2,5.333695797E-1
6.842628000E0,-4.766939878E-1,-9.936692659E-4,5.425916985E-2,4.797730744E-1
6.852649000E0,-4.170344174E-1,-3.740993794E-3,4.983536154E-2,4.200181705E-1
6.862669000E0,-3.601495624E-1,-2.833388746E-3,4.926411062E-2,3.635143573E-1
6.872689000E0,-2.982043922E-1,-4.070153460E-3,4.400706664E-2,3.014615192E-1
6.882709000E0,-2.370129377E-1,1.951520564E-3,3.579121456E-2,2.397080560E-1
6.892730000E0,-1.780942082E-1,3.656885587E-3,3.341622651E-2,1.812389694E-1
6.902750000E0,-1.191344857E-1,2.075234428E-3,3.003773838E-2,1.228804216E-1
6.912770000E0,-6.031966582E-2,2.761259675E-4,2.524483018E-2,6.538990580E-2
6.922791000E0,-1.073122490E-3,9.483076865E-4,1.803804934E-2,1.809480874E-2
6.932811000E0,5.920965597E-2,-8.086436428E-4,1.375514455E-2,6.079178617E-2
6.942831000E0,1.178386211E-1,2.401091624E-4,6.510281004E-3,1.180185665E-1
6.952851000E0,1.725355834E-1,-3.143073991E-5,2.836100524E-3,1.725588943E-1
6.962872000E0,2.346676588E-1,-1.346766017E-3,-7.792575285E-3,2.348008690E-1
6.972892000E0,2.900274098E-1,7.418403402E-4,-1.215212047E-2,2.902828324E-1
6.982912000E0,3.475644588E-1,-4.467284307E-4,-1.830349118E-2,3.480463624E-1
6.992932000E0,4.027770460E-1,-1.941923751E-3,-2.934658900E-2,4.038494052E-1
7.002953000E0,4.541741908E-1,-1.037780428E-3,-4.047460854E-2,4.559752915E-1
7.012973000E0,5.078665614E-1,-1.358788693E-3,-4.729435220E-2,5.100657274E-1
7.022990500E0,5.603036284E-1,2.167236526E-3,-5.869081616E-2,5.633732909E-1
7.033011500E0,6.176434755E-1,1.657201559E-3,-6.459974498E-2,6.210147633E-1
7.043031500E0,6.663026214E-1,7.340121083E-3,-7.251652330E-2,6.702773357E-1
7.053051500E0,7.221422791E-1,2.784336917E-3,-7.977911830E-2,7.265410736E-1
7.063071500E0,7.613005638E-1,1.433847821E-3,-8.978567272E-2,7.665781574E-1
7.073092500E0,8.003668189E-1,-1.061209757E-2,-9.477932006E-2,8.060290199E-1
7.083112500E0,8.426676393E-1,-1.278097555E-2,-9.926621616E-2,8.485905286E-1
7.093132500E0,8.845347762E-1,-1.093431842E-2,-1.074920818E-1,8.911093520E-1
7.103153500E0,9.334373474E-1,1.696788240E-3,-1.155185848E-1,9.405597823E-1
7.113173500E0,9.744222760E-1,6.131146103E-3,-1.210085079E-1,9.819263832E-1
7.123193500E0,1.013958454E0,8.303753100E-3,-1.234000251E-1,1.021473575E0
7.133213500E0,1.044465542E0,4.791093990E-3,-1.266078204E-1,1.052122029E0
7.143234500E0,1.071907997E0,9.436253458E-4,-1.312308013E-1,1.079911648E0
7.153254500E0,1.104945898E0,-1.675696811E-3,-1.335541010E-1,1.112989193E0
7.163274500E0,1.132031918E0,1.459051855E-4,-1.370039582E-1,1.140292229E0
7.173294500E0,1.160247803E0,-1.215147087E-3,-1.398909390E-1,1.168651323E0
7.183315500E0,1.185771465E0,2.904763212E-3,-1.425423920E-1,1.194311827E0
7.193335500E0,1.208809614E0,2.728380263E-3,-1.460261941E-1,1.217600828E0
7.203355500E0,1.227810740E0,3.432253608E-3,-1.437851340E-1,1.236205954E0
7.213376500E0,1.247317314E0,1.678310917E-3,-1.411266923E-1,1.255276879E0
7.223396500E0,1.262709618E0,6.853631698E-3,-1.423381716E-1,1.270725268E0
7.233416500E0,1.272369981E0,5.157668609E-3,-1.386062950E-1,1.279907682E0
7.243436500E0,1.284622073E0,1.068878826E-2,-1.400239021E-1,1.292275054E0
7.253457500E0,1.290848494E0,1.192909200E-2,-1.356504112E-1,1.298011237E0
7.263477500E0,1.296200991E0,6.319941953E-3,-1.317691207E-1,1.302896792E0
7.273497500E0,1.294638991E0,4.300519358E-3,-1.316198111E-1,1.301319479E0
7.283518500E0,1.293062687E0,-1.958175329E-3,-1.265994906E-1,1.299246850E0
7.293538500E0,1.293760657E0,3.926810343E-3,-1.234004647E-1,1.299638309E0
7.303558500E0,1.286876917E0,9.299551602E-4,-1.175934449E-1,1.292238864E0
7.313578500E0,1.281323552E0,4.707945511E-3,-1.140089557E-1,1.286394283E0
7.323599500E0,1.270444632E0,4.714869894E-3,-1.110507175E-1,1.275297633E0
7.333619500E0,1.258191109E0,7.674448192E-3,-1.060668454E-1,1.262677290E0
7.343639500E0,1.243734121E0,7.966596633E-3,-1.031299084E-1,1.248027968E0
7.353660500E0,1.224007249E0,6.280600093E-3,-1.012611911E-1,1.228204796E0
7.363680500E0,1.206956983E0,1.055417489E-2,-1.002523825E-1,1.211159399E0
7.373700500E0,1.183433533E0,8.521117270E-3,-9.600730985E-2,1.187352071E0
7.383720500E0,1.159561992E0,1.254701801E-2,-9.507732838E-2,1.163521009E0
7.393741500E0,1.133152962E0,8.073703386E-3,-9.001850337E-2,1.136751578E0
7.403761500E0,1.101400375E0,5.587109830E-3,-8.668155968E-2,1.104820210E0
7.413781500E0,1.070052862E0,2.258377383E-3,-8.825509250E-2,1.073688591E0
7.423801500E0,1.035804629E0,3.403004026E-3,-8.328136802E-2,1.039152827E0
7.433822500E0,1.000656605E0,1.731292577E-3,-8.215586096E-2,1.004025011E0
7.443842500E0,9.618799090E-1,-3.449076321E-4,-8.170951903E-2,9.653442515E-1
7.453862500E0,9.269644618E-1,3.968066070E-3,-8.050689846E-2,9.304623688E-1
7.463883500E0,8.884101510E-1,5.152906291E-3,-7.704159617E-2,8.917592480E-1
7.473903500E0,8.442017436E-1,1.058023795E-2,-7.388806343E-2,8.474951158E-1
7.483923500E0,7.995293140E-1,6.903477944E-3,-7.222571969E-2,8.028146340E-1
7.493943500E0,7.554018497E-1,2.855858766E-4,-7.117611915E-2,7.587477025E-1
7.503964500E0,7.099163532E-1,4.130391404E-3,-6.742931902E-2,7.131234127E-1
7.513984500E0,6.593683362E-1,3.228596412E-3,-6.358715147E-2,6.624351685E-1
7.524004500E0,6.111869812E-1,-2.175756264E-3,-5.840330943E-2,6.139749233E-1
7.534024500E0,5.592601895E-1,-5.392883904E-3,-5.699516833E-2,5.621827923E-1
7.544045500E0,5.049285293E-1,-2.085238229E-3,-5.357966572E-2,5.077676127E-1
7.554065500E0,4.581733644E-1,-4.221878015E-3,-4.983812198E-2,4.608953184E-1
7.564085500E0,4.024848044E-1,2.232825849E-3,-4.644845054E-2,4.051622661E-1
7.574106500E0,3.575626612E-1,7.973224856E-3,-4.361212626E-2,3.603007723E-1
7.584126500E0,2.985400856E-1,1.019430067E-2,-3.537363932E-2,3.008012646E-1
7.594146500E0,2.439800799E-1,3.513799049E-3,-3.193532303E-2,2.460863487E-1
7.604166500E0,1.871239841E-1,3.130836412E-3,-2.677278407E-2,1.890554668E-1
7.614187500E0,1.293511987E-1,3.777944949E-4,-2.450702339E-2,1.316528371E-1
7.624207500E0,7.130920142E-2,2.017236548E-3,-1.719265059E-2,7.338023361E-2
7.634227500E0,2.442388050E-2,-1.685728319E-2,-1.001391746E-2,3.132048017E-2
7.644248500E0,-3.826985881E-2,-2.719093114E-3,-4.377869889E-3,3.861529885E-2
7.654268500E0,-8.694361895E-2,-6.164010614E-3,-9.229364223E-4,8.716673514E-2
7.664288500E0,-1.430657506E-1,-1.332605071E-2,9.015448391E-3,1.439676038E-1
7.674308500E0,-1.978524327E-1,-8.497316390E-3,1.479360182E-2,1.985866062E-1
7.684329500E0,-2.448966503E-1,6.167912856E-3,2.514637262E-2,2.462615531E-1
7.694349500E0,-2.971370518E-1,1.206133142E-2,2.986933105E-2,2.988780357E-1
7.704369500E0,-3.499177098E-1,9.592048824E-3,3.939199448E-2,3.522586270E-1
7.714389500E0,-4.001469314E-1,7.757438347E-3,4.777233675E-2,4.030631969E-1
7.724410500E0,-4.466872513E-1,-4.048841074E-4,5.609631538E-2,4.501960251E-1
7.734430500E0,-4.888150096E-1,-8.279974572E-4,6.448954344E-2,4.930514176E-1
7.744450500E0,-5.524746180E-1,2.722262638E-3,7.390487939E-2,5.574024986E-1
7.754471500E0,-5.725124478E-1,3.288313281E-3,8.048724383E-2,5.781518074E-1
7.764491500E0,-6.309973598E-1,5.108583719E-3,8.840615302E-2,6.371808327E-1
7.774511500E0,-6.670838594E-1,1.020919904E-2,9.253072739E-2,6.735480969E-1
7.784531500E0,-7.050535679E-1,-3.446415067E-4,1.003801301E-1,7.121634805E-1
7.794552500E0,-7.460998893E-1,1.335059409E-3,1.048310101E-1,7.534297365E-1
7.804572500E0,-7.913531661E-1,7.550344802E-3,1.103328392E-1,7.990432883E-1
7.814592500E0,-8.193026781E-1,2.359402133E-3,1.128532887E-1,8.270419033E-1
7.824612500E0,-8.618701100E-1,9.284419939E-3,1.193239689E-1,8.701405039E-1
7.834633500E0,-8.913235664E-1,1.228115428E-2,1.193909124E-1,8.993679541E-1
7.844653500E0,-9.291787744E-1,1.889513806E-5,1.234831214E-1,9.373480017E-1
7.854673500E0,-9.555219412E-1,4.928112030E-3,1.248208508E-1,9.636527960E-1
7.864694500E0,-9.853679538E-1,7.985953242E-3,1.279258430E-1,9.936693621E-1
7.874714500E0,-1.009532571E0,4.300588742E-3,1.308474988E-1,1.017986039E0
7.884734500E0,-1.040094137E0,1.028444618E-2,1.301526874E-1,1.048256317E0
7.894754500E0,-1.062404633E0,3.446938703E-3,1.286156774E-1,1.070167032E0
7.904775500E0,-1.085859895E0,4.467728548E-3,1.277397573E-1,1.093356811E0
7.914795500E0,-1.102587700E0,5.914408714E-3,1.253700554E-1,1.109708190E0
7.924815500E0,-1.118181586E0,8.060117252E-3,1.241564453E-1,1.125082152E0
7.934836500E0,-1.127434254E0,1.270202175E-2,1.245373562E-1,1.134362769E0
7.944856500E0,-1.147862554E0,8.430044167E-3,1.202478036E-1,1.154174615E0
7.954876500E0,-1.156359911E0,2.562643494E-3,1.194253415E-1,1.162513322E0
7.964896500E0,-1.165971518E0,2.434279304E-3,1.144055501E-1,1.171573359E0
7.974917500E0,-1.173307061E0,2.605199115E-3,1.103297621E-1,1.178485852E0
7.984937500E0,-1.177965522E0,-2.622585744E-3,1.070809737E-1,1.182825424E0
7.994957500E0,-1.177854657E0,-1.472861040E-4,1.055517942E-1,1.182574647E0
8.004978500E0,-1.174479365E0,1.555805444E-3,1.018010005E-1,1.178884067E0
8.014998500E0,-1.169151306E0,2.106361557E-3,9.436237067E-2,1.172955016E0
8.025018875E0,-1.170719624E0,-2.353101736E-3,9.430111945E-2,1.174513804E0
8.035038875E0,-1.159183025E0,-1.140866661E-3,9.199997783E-2,1.162828699E0
8.045059875E0,-1.146979570E0,-2.497214591E-3,8.783372492E-2,1.150340443E0
8.055079875E0,-1.139775157E0,-7.781963795E-4,8.532345295E-2,1.142964613E0
8.065099875E0,-1.120835304E0,-5.483655259E-4,8.099155128E-2,1.123757853E0
8.075120875E0,-1.109961629E0,-2.910271054E-3,7.678800076E-2,1.112618391E0
8.085140875E0,-1.085512757E0,-1.301970333E-4,7.408595830E-2,1.088038001E0
8.095160875E0,-1.070095181E0,-3.111196216E-3,7.471443713E-2,1.072704817E0
8.105180875E0,-1.046314240E0,-2.347135451E-3,7.004351914E-2,1.048658711E0
8.115201875E0,-1.018471003E0,-2.609416842E-3,6.603562832E-2,1.020612902E0
8.125221875E0,-9.913080931E-1,-2.708752640E-3,6.246220693E-2,9.932777054E-1
8.135241875E0,-9.659399390E-1,-2.414959949E-3,6.103202701E-2,9.678691576E-1
8.145261875E0,-9.362331629E-1,8.716470329E-4,6.023680791E-2,9.381693707E-1
8.155282875E0,-9.008244276E-1,-7.109344937E-3,5.866647139E-2,9.027607363E-1
8.165302875E0,-8.663335443E-1,-4.709836096E-3,5.603739619E-2,8.681567728E-1
8.175322875E0,-8.346267939E-1,-2.158726798E-3,5.487390980E-2,8.364315221E-1
8.185343875E0,-7.963246703E-1,-4.893527366E-3,5.155054852E-2,7.980065076E-1
8.195363875E0,-7.618872523E-1,-2.662915504E-3,4.945466667E-2,7.634952786E-1
8.205383875E0,-7.171788812E-1,-2.882093424E-3,5.047092959E-2,7.189583916E-1
8.215403875E0,-6.768114567E-1,-3.566725645E-3,4.815269262E-2,6.785316140E-1
8.225424875E0,-6.301004291E-1,-2.003183588E-3,4.727997631E-2,6.318749557E-1
8.235444875E0,-5.932695270E-1,-2.063500928E-3,4.635127634E-2,5.950810285E-1
8.245464875E0,-5.444945097E-1,-1.959371148E-3,4.408226162E-2,5.462795585E-1
8.255484875E0,-5.003945827E-1,-1.571955858E-3,4.204238579E-2,5.021601056E-1
8.265505875E0,-4.532739818E-1,-3.487034934E-3,4.453830048E-2,4.554702210E-1
8.275525875E0,-4.052056670E-1,1.683933544E-3,3.840991110E-2,4.070255391E-1
8.285545875E0,-3.547614217E-1,-2.161404584E-3,3.745356947E-2,3.567395518E-1
8.295566875E0,-3.049805462E-1,6.014341488E-5,3.530039266E-2,3.070167014E-1
8.305586875E0,-2.593339682E-1,4.750639200E-4,3.442155197E-2,2.616088224E-1
8.315606875E0,-2.043731362E-1,-1.525038155E-3,2.789778635E-2,2.062740677E-1
8.325626875E0,-1.514923424E-1,-2.170322230E-3,2.436110750E-2,1.534539138E-1
8.335647875E0,-1.039548963E-1,-5.513497163E-4,2.164303325E-2,1.061854291E-1
8.345667875E0,-5.334471911E-2,4.129807930E-4,1.964086853E-2,5.684710482E-2
8.355687875E0,-5.320869852E-3,-2.624204615E-3,1.428354997E-2,1.546667080E-2
8.365708875E0,4.498358071E-2,2.924893051E-4,1.092210785E-2,4.629147355E-2
8.375728875E0,9.743360430E-2,3.493521363E-3,6.804974750E-3,9.773341097E-2
8.385748875E0,1.429710090E-1,2.532653045E-3,4.480567761E-3,1.430636195E-1
8.395768875E0,1.900915056E-1,8.087580791E-4,-1.324320328E-4,1.900932722E-1
8.405789875E0,2.385378778E-1,-3.132187529E-3,-7.979169488E-3,2.386918450E-1
8.415809875E0,2.839334011E-1,-7.285960019E-3,-1.520130225E-2,2.844333684E-1
8.425829875E0,3.313429952E-1,-2.793207066E-3,-2.043894120E-2,3.319845369E-1
8.435849875E0,3.787985444E-1,-5.043933634E-4,-2.970579453E-2,3.799618743E-1
8.445870875E0,4.275503755E-1,3.376364941E-3,-3.768329322E-2,4.292211015E-1
8.455890875E0,4.717032015E-1,2.647724003E-3,-4.310655594E-2,4.736761509E-1
8.465910875E0,5.164738297E-1,-4.308452830E-3,-4.953010008E-2,5.188612631E-1
8.475931875E0,5.524156690E-1,-8.642396424E-4,-5.762475356E-2,5.554137471E-1
8.485951875E0,5.918530822E-1,-6.656082347E-3,-6.467467546E-2,5.954134597E-1
8.495971875E0,6.339049339E-1,-9.056922048E-3,-7.139942050E-2,6.379775626E-1
8.505991875E0,6.689816713E-1,-8.522159420E-3,-7.819420844E-2,6.735899628E-1
8.516012875E0,7.038737535E-1,-5.685070530E-3,-8.328580111E-2,7.088068183E-1
8.526032875E0,7.350037098E-1,2.532112878E-3,-8.605974913E-2,7.400291517E-1
8.536052875E0,7.754586935E-1,-5.414881743E-4,-9.350669384E-2,7.810761681E-1
8.546073875E0,8.107450604E-1,5.281779915E-3,-9.984154999E-2,8.168866417E-1
8.556093875E0,8.418825269E-1,6.307231728E-3,-1.065427735E-1,8.486208416E-1
8.566113875E0,8.726670742E-1,3.734351834E-3,-1.079417318E-1,8.793254149E-1
8.576133875E0,8.985325098E-1,4.039017484E-3,-1.112400517E-1,9.054012005E-1
8.586154875E0,9.206391573E-1,-1.234959345E-3,-1.156265736E-1,9.278725600E-1
8.596174875E0,9.443787932E-1,2.956483513E-3,-1.146201938E-1,9.513137415E-1
8.606194875E0,9.665077925E-1,-2.109647961E-3,-1.177739128E-1,9.736593131E-1
8.616214875E0,9.864115119E-1,1.667886158E-3,-1.173949167E-1,9.933740580E-1
8.626235875E0,1.006897688E0,2.560311463E-3,-1.194247752E-1,1.013958474E0
8.636255875E0,1.019491196E0,9.155587759E-4,-1.197972745E-1,1.026505978E0
8.646275875E0,1.036282182E0,7.216597907E-3,-1.220969185E-1,1.043475202E0
8.656296875E0,1.049387932E0,1.173867565E-2,-1.205289811E-1,1.056352244E0
8.666316875E0,1.061108828E0,1.376347709E-2,-1.195239052E-1,1.067907927E0
8.676336875E0,1.070087910E0,1.245559845E-2,-1.184985861E-1,1.076701069E0
8.686356875E0,1.076466680E0,8.172171190E-3,-1.167416945E-1,1.082809272E0
8.696377875E0,1.076456070E0,8.573553525E-3,-1.135182679E-1,1.082459040E0
8.706397875E0,1.077496052E0,7.189242169E-3,-1.103597581E-1,1.083156823E0
8.716417875E0,1.077223897E0,7.031218149E-3,-1.070597470E-1,1.082553718E0
8.726438875E0,1.077931285E0,6.222150289E-3,-1.013299599E-1,1.082701404E0
8.736458875E0,1.070960522E0,7.540374063E-3,-9.780942649E-2,1.075444085E0
8.746478875E0,1.068919778E0,9.674265748E-4,-9.492016584E-2,1.073126398E0
8.756498875E0,1.054750443E0,4.318929743E-3,-9.189878404E-2,1.058755182E0
8.766519875E0,1.047205210E0,2.370028291E-3,-9.055361152E-2,1.051115752E0
8.776539875E0,1.032819867E0,9.806278162E-3,-8.642323315E-2,1.036475767E0
8.786559875E0,1.019513965E0,5.022974685E-3,-8.245352656E-2,1.022855092E0
8.796579875E0,1.000913620E0,7.080907933E-3,-8.321094513E-2,1.004391495E0
8.806600875E0,9.835796356E-1,8.467082866E-3,-7.742629200E-2,9.866587160E-1
8.816620875E0,9.603653550E-1,8.339987136E-3,-7.384225726E-2,9.632361338E-1
8.826640875E0,9.399878979E-1,3.600891680E-3,-7.207445055E-2,9.427539133E-1
8.836661875E0,9.144960642E-1,4.320988432E-3,-7.115549594E-2,9.172703129E-1
8.846681875E0,8.877992034E-1,2.557442989E-3,-6.940766424E-2,8.905118696E-1
8.856701875E0,8.589372635E-1,2.216065768E-4,-6.807225198E-2,8.616304911E-1
8.866721875E0,8.275481462E-1,1.084737014E-3,-7.049732655E-2,8.305461962E-1
8.876742875E0,8.003598452E-1,8.899578825E-5,-6.718588620E-2,8.031748458E-1
8.886762875E0,7.692421079E-1,4.991076421E-3,-6.385666877E-2,7.719041427E-1
8.896782875E0,7.349556088E-1,4.685316235E-3,-6.249859184E-2,7.376230563E-1
8.906803875E0,7.020434737E-1,5.793457385E-3,-6.005700678E-2,7.046314265E-1
8.916823875E0,6.642858386E-1,4.276969470E-3,-5.894738436E-2,6.669098604E-1
8.926843875E0,6.232017875E-1,3.975233063E-3,-5.705840141E-2,6.258210060E-1
8.936863875E0,5.822447538E-1,-1.914629946E-3,-5.337292328E-2,5.846890525E-1
8.946884875E0,5.417053103E-1,-5.501109175E-3,-5.338490382E-2,5.443572847E-1
8.956904875E0,4.956026375E-1,-2.005292801E-3,-5.110055208E-2,4.982341437E-1
8.966924875E0,4.573053122E-1,-2.354965778E-3,-4.785815254E-2,4.598087615E-1
8.976945875E0,4.141703844E-1,4.998496268E-3,-4.675322026E-2,4.168308481E-1
8.986965875E0,3.775348663E-1,8.833448403E-3,-4.303465039E-2,3.800823414E-1
8.996985875E0,3.333888948E-1,7.877891883E-3,-3.682742268E-2,3.355092777E-1
9.007005875E0,2.897295654E-1,1.944634598E-3,-3.517147154E-2,2.918630416E-1
9.017026875E0,2.334190756E-1,-5.297262222E-3,-3.329456598E-2,2.358411626E-1
9.027046375E0,1.853809804E-1,-1.465028338E-2,-2.919170074E-2,1.882362720E-1
9.037066375E0,1.417458802E-1,-3.600278869E-4,-2.332422324E-2,1.436525098E-1
9.047086375E0,1.070837751E-1,1.672230312E-3,-1.823305897E-2,1.086378188E-1
9.057107375E0,5.660780892E-2,1.006124448E-2,-1.408090908E-2,5.919412700E-2
9.067127375E0,9.118587710E-3,9.363230318E-3,-7.366015110E-3,1.500256319E-2
9.077147375E0,-3.922833130E-2,-5.806237459E-5,-3.765609115E-3,3.940869396E-2
9.087168375E0,-9.050376713E-2,-1.788579486E-2,2.121574478E-3,9.227857065E-2
9.097188375E0,-1.346363425E-1,-2.761065587E-2,9.497720748E-3,1.377661052E-1
9.107208375E0,-1.751667261E-1,-1.739796624E-2,1.672047935E-2,1.768209422E-1
9.117228375E0,-2.172043622E-1,3.998544533E-3,1.820292324E-2,2.180024535E-1
9.127249375E0,-2.596455514E-1,1.765203848E-2,2.848538943E-2,2.617992060E-1
9.137269375E0,-2.976690233E-1,2.256680839E-2,3.560196608E-2,3.006386673E-1
9.147289375E0,-3.413048983E-1,8.787345141E-3,4.318212345E-2,3.441379764E-1
9.157310375E0,-3.790806532E-1,-3.692331025E-3,4.982226342E-2,3.823585135E-1
9.167330375E0,-4.186334014E-1,-6.671875715E-3,5.685034767E-2,4.225285798E-1
9.177350375E0,-4.567150474E-1,-5.057614762E-3,6.313353032E-2,4.610857367E-1
9.187370375E0,-4.927055538E-1,5.739905406E-3,7.023564726E-2,4.977195549E-1
9.197391375E0,-5.274855494E-1,-1.197474543E-2,7.912190259E-2,5.335210163E-1
9.207411375E0,-5.737640858E-1,4.944050685E-3,8.181249350E-2,5.795886074E-1
9.217431375E0,-6.037145853E-1,2.129412023E-3,8.772308379E-2,6.100583368E-1
9.227451375E0,-6.242720485E-1,1.233258285E-3,9.361000359E-2,6.312526786E-1
9.237472375E0,-6.556159258E-1,1.206250861E-2,9.619104862E-2,6.627446447E-1
9.247492375E0,-6.910343766E-1,1.309714653E-2,1.007802114E-1,6.984673907E-1
9.257512375E0,-7.151957750E-1,1.143636927E-2,1.017084420E-1,7.224821066E-1
9.267533375E0,-7.576092482E-1,5.632807966E-3,1.061436757E-1,7.650293990E-1
9.277553375E0,-7.751546502E-1,3.076265566E-4,1.076625586E-1,7.825957148E-1
9.287573375E0,-8.016920090E-1,5.521829706E-3,1.077270061E-1,8.089163589E-1
9.297593375E0,-8.185581565E-1,6.695841439E-3,1.098846197E-1,8.259279142E-1
9.307614375E0,-8.397065401E-1,6.497702096E-3,1.112721264E-1,8.470718858E-1
9.317634375E0,-8.602688909E-1,5.341910291E-3,1.124683395E-1,8.676060327E-1
9.327654375E0,-8.772183061E-1,3.801005427E-3,1.113444865E-1,8.842646656E-1
9.337675375E0,-8.995717168E-1,2.732719295E-4,1.118067056E-1,9.064932916E-1
9.347695375E0,-9.133716822E-1,-1.427955693E-3,1.143521518E-1,9.205032773E-1
9.357715375E0,-9.283273220E-1,-2.231194638E-3,1.110209301E-1,9.349450475E-1
9.367735375E0,-9.406305552E-1,-3.006688785E-4,1.065319031E-1,9.466440609E-1
9.377756375E0,-9.458878636E-1,5.160208326E-3,1.055212840E-1,9.517695203E-1
9.387776375E0,-9.588899612E-1,1.148974337E-2,1.035217792E-1,9.645303161E-1
9.397796375E0,-9.578118920E-1,1.071264688E-2,9.938782454E-2,9.630141852E-1
9.407816375E0,-9.664580822E-1,1.236593723E-2,9.575048089E-2,9.712683953E-1
9.417837375E0,-9.672656059E-1,5.549295805E-3,9.036602825E-2,9.714934720E-1
9.427857375E0,-9.717420936E-1,-1.493359450E-4,8.946215361E-2,9.758515234E-1
9.437877375E0,-9.689629078E-1,-3.611192806E-3,8.381698281E-2,9.725880135E-1
9.447898375E0,-9.671050906E-1,-5.369944498E-3,8.104915917E-2,9.705102054E-1
9.457918375E0,-9.611316323E-1,-2.509297803E-3,7.749728113E-2,9.642541884E-1
9.467938375E0,-9.526406527E-1,-1.838447526E-3,7.355153561E-2,9.554775881E-1
9.477958375E0,-9.389547706E-1,-7.128966972E-4,7.222014666E-2,9.417283679E-1
9.487979375E0,-9.304539561E-1,-1.902797027E-3,6.712605059E-2,9.328741029E-1
9.497999375E0,-9.181223512E-1,-1.742398134E-3,6.188080832E-2,9.202069996E-1
9.508019375E0,-9.072741866E-1,8.994578384E-4,6.185071170E-2,9.093804315E-1
9.518040375E0,-8.916554451E-1,-6.247533020E-4,5.882707238E-2,8.935941179E-1
9.528060375E0,-8.748205304E-1,-2.196284477E-3,5.803185329E-2,8.767459610E-1
9.538080375E0,-8.575643301E-1,-4.763358273E-3,5.701321736E-2,8.594706375E-1
9.548100375E0,-8.378864527E-1,-2.955604345E-3,5.255162343E-2,8.395380374E-1
9.558121375E0,-8.090833426E-1,-4.663763568E-3,4.868201166E-2,8.105600188E-1
9.568141375E0,-7.893854976E-1,-4.692791961E-3,4.769024998E-2,7.908386978E-1
9.578161375E0,-7.577326894E-1,-5.627314094E-4,4.387727380E-2,7.590022137E-1
9.588182375E0,-7.334395647E-1,-1.891382504E-3,4.337393865E-2,7.347233976E-1
9.598202375E0,-6.988373399E-1,2.291666809E-3,4.276870936E-2,7.001485855E-1
9.608222375E0,-6.708536148E-1,2.036536112E-3,4.004029930E-2,6.720505528E-1
9.618242375E0,-6.375288367E-1,-1.330897212E-2,4.076179489E-2,6.389692249E-1
9.628263375E0,-6.238237023E-1,-8.079057559E-3,3.888373449E-2,6.250865761E-1
9.638283375E0,-5.741441846E-1,-2.184591629E-2,3.526940569E-2,5.756411380E-1
9.648303375E0,-5.465687513E-1,-2.324412577E-3,4.021835700E-2,5.480513836E-1
9.658323375E0,-4.938156307E-1,4.379333463E-3,3.649090603E-2,4.951814232E-1
9.668344375E0,-4.621013999E-1,1.007796545E-2,3.413773701E-2,4.634702302E-1
9.678364375E0,-4.257546961E-1,-2.418744843E-4,3.332851827E-2,4.270572677E-1
9.688384375E0,-3.907405138E-1,-1.422373578E-2,3.527582064E-2,3.925873754E-1
9.698405375E0,-3.656837344E-1,-1.136399526E-2,3.352949396E-2,3.673934689E-1
9.708425375E0,-3.194523454E-1,-1.088116411E-2,2.808865719E-2,3.208694023E-1
9.718445375E0,-2.771457136E-1,1.760774059E-3,3.176929802E-2,2.789661900E-1
9.728465375E0,-2.285326421E-1,2.147136256E-2,3.076821752E-2,2.315920360E-1
9.738486375E0,-1.825299710E-1,1.172180381E-2,2.504431829E-2,1.846125913E-1
9.748506375E0,-1.495925188E-1,5.773633718E-3,2.508160286E-2,1.517904586E-1
9.758526375E0,-1.126598418E-1,-1.053246111E-2,1.821490750E-2,1.146078337E-1
9.768547375E0,-6.741247326E-2,-9.622459300E-3,1.609583199E-2,6.997220221E-2
9.778567375E0,-2.648896724E-2,-6.783640012E-3,1.303347200E-2,3.029116290E-2
9.788587375E0,1.978878304E-2,2.283624606E-3,1.170215756E-2,2.310305969E-2
9.798607375E0,6.381080300E-2,4.768612329E-3,9.167592973E-3,6.464211478E-2
9.808628375E0,1.022167876E-1,9.678415954E-3,4.478298593E-3,1.027715844E-1
9.818648375E0,1.399187595E-1,4.848711193E-3,2.488069236E-3,1.400248540E-1
9.828668375E0,1.771345735E-1,-2.207334153E-3,-2.950371942E-3,1.771728933E-1
9.838688375E0,2.153383344E-1,-5.476552527E-3,-1.186864730E-2,2.157346882E-1
9.848709375E0,2.570988536E-1,-1.024546335E-3,-1.408253331E-2,2.574862869E-1
9.858729375E0,2.935855687E-1,5.024846643E-3,-2.077149041E-2,2.943623448E-1
9.868749375E0,3.289925456E-1,7.954323664E-3,-2.701527253E-2,3.301956863E-1
9.878770375E0,3.664439917E-1,9.032205679E-3,-3.371129930E-2,3.681022025E-1
9.888790375E0,4.026259780E-1,3.108802950E-3,-3.960141540E-2,4.045807891E-1
9.898810375E0,4.396490157E-1,-1.517208293E-3,-4.692266881E-2,4.421484997E-1
9.908830375E0,4.682756066E-1,-4.309799057E-3,-4.901538044E-2,4.708536138E-1
9.918851375E0,5.025959611E-1,-5.014494527E-3,-5.898316205E-2,5.060700136E-1
9.928871375E0,5.334609151E-1,-1.094428822E-2,-6.470283866E-2,5.374818906E-1
9.938891375E0,5.624656081E-1,-1.896063238E-2,-6.775171310E-2,5.668486222E-1
9.948912375E0,5.927268267E-1,-3.079936374E-3,-7.261011750E-2,5.971656439E-1
9.958932375E0,6.188682318E-1,3.105018521E-3,-8.080293238E-2,6.241287073E-1
9.968952375E0,6.486229300E-1,3.035509959E-3,-8.560833335E-2,6.542550775E-1
9.978972375E0,6.758409142E-1,2.888686955E-3,-8.888147771E-2,6.816664895E-1
9.988993375E0,7.041735053E-1,1.302774413E-3,-9.369886667E-2,7.103812360E-1
9.999013375E0,7.210477591E-1,1.818346791E-3,-9.668859839E-2,7.275038572E-1
1.000903337E1,7.393825650E-1,-1.743364614E-3,-9.777410328E-2,7.458212869E-1
1.001905438E1,7.595582008E-1,-2.828728175E-3,-9.878358245E-2,7.659600892E-1
1.002907454E1,7.767224908E-1,-5.098007619E-3,-9.983259439E-2,7.831285746E-1
1.003909454E1,7.930490375E-1,-3.749656258E-3,-1.031235009E-1,7.997345136E-1
1.004911454E1,8.105116487E-1,-4.921447486E-3,-1.051866561E-1,8.173234279E-1
1.005913554E1,8.245308399E-1,-1.165693859E-3,-1.043144241E-1,8.311040632E-1
1.006915554E1,8.370476961E-1,5.514579359E-3,-1.032243967E-1,8.434065047E-1
1.007917554E1,8.539486527E-1,1.342961751E-2,-1.021729186E-1,8.601441516E-1
1.008919554E1,8.664303422E-1,1.534389798E-2,-9.722556174E-2,8.720033159E-1
1.009921654E1,8.717871308E-1,1.441322640E-2,-9.337007254E-2,8.768913918E-1
1.010923654E1,8.724518418E-1,5.780589767E-3,-9.430883825E-2,8.775532967E-1
1.011925654E1,8.776600361E-1,1.408235636E-3,-9.258034080E-2,8.825305896E-1
1.012927754E1,8.764944077E-1,-3.419937566E-4,-8.876989037E-2,8.809782387E-1
1.013929754E1,8.755112886E-1,-9.544976056E-4,-8.290524036E-2,8.794283407E-1
1.014931754E1,8.776689768E-1,3.326081205E-4,-8.146393299E-2,8.814416123E-1
1.015933754E1,8.751412034E-1,4.451962188E-3,-7.726769894E-2,8.785569095E-1
1.016935854E1,8.691504598E-1,6.993150339E-3,-7.602586597E-2,8.724971966E-1
1.017937854E1,8.620508313E-1,1.193993259E-2,-7.405156642E-2,8.653079407E-1
1.018939854E1,8.597258925E-1,3.635930363E-3,-6.902059168E-2,8.624996651E-1
1.019941954E1,8.484879732E-1,9.783796966E-3,-7.033183426E-2,8.514541269E-1
1.020943954E1,8.376102448E-1,7.984564640E-3,-6.531896442E-2,8.401911940E-1
1.021945954E1,8.269196153E-1,8.944088593E-3,-6.413507462E-2,8.294512370E-1
1.022947954E1,8.068673611E-1,8.076163940E-3,-6.201466545E-2,8.092873294E-1
1.023950054E1,7.893016338E-1,5.539975129E-3,-5.654778332E-2,7.913440543E-1
1.024952054E1,7.727306485E-1,-5.600560457E-3,-5.502099171E-2,7.747072550E-1
1.025954054E1,7.534166574E-1,-2.040824154E-3,-5.340097845E-2,7.553095320E-1
1.026956154E1,7.327518463E-1,-2.919263206E-4,-5.206540599E-2,7.345993194E-1
1.027958154E1,7.064406872E-1,3.969998565E-3,-5.586169288E-2,7.086569933E-1
1.028960154E1,6.850746274E-1,1.698055770E-3,-5.247468501E-2,6.870834892E-1
1.029962154E1,6.650809646E-1,5.280014593E-3,-5.719590560E-2,6.675566939E-1
1.030964254E1,6.351981759E-1,3.495164216E-3,-5.048074201E-2,6.372105179E-1
1.031966254E1,6.083163619E-1,4.926723428E-3,-5.115042254E-2,6.104829518E-1
1.032968254E1,5.833486915E-1,7.252994925E-3,-4.971764237E-2,5.855084506E-1
1.033970254E1,5.494380593E-1,3.094898537E-3,-4.720608145E-2,5.514709181E-1
1.034972354E1,5.168486834E-1,1.578760799E-3,-4.653416947E-2,5.189416951E-1
1.035974354E1,4.822487235E-1,-2.540328773E-3,-4.800892249E-2,4.846391866E-1
1.036976354E1,4.545433223E-1,-4.108930938E-3,-4.682115093E-2,4.569668865E-1
1.037978454E1,4.180661738E-1,2.780967858E-3,-4.451467842E-2,4.204385996E-1
1.038980454E1,3.883828521E-1,4.645713139E-3,-4.210638255E-2,3.906862807E-1
1.039982454E1,3.529430926E-1,6.318266038E-3,-4.036258161E-2,3.552997116E-1
1.040984454E1,3.151025176E-1,4.797867499E-3,-3.902008012E-2,3.175455602E-1
1.041986554E1,2.784207463E-1,2.628206275E-3,-3.385800868E-2,2.804841960E-1
1.042988554E1,2.412656397E-1,-4.302936606E-3,-3.546123207E-2,2.438957218E-1
1.043990554E1,2.013198286E-1,-1.247430220E-3,-3.181508929E-2,2.038220532E-1
1.044992654E1,1.665764898E-1,2.604033332E-3,-2.358805016E-2,1.682584442E-1
1.045994654E1,1.341732144E-1,-5.083791912E-3,-2.186879329E-2,1.360387464E-1
1.046996654E1,8.919508755E-2,6.916412152E-3,-2.019446343E-2,9.171377625E-2
1.047998654E1,5.242941529E-2,1.753624063E-3,-1.698288880E-2,5.513925368E-2
1.049000754E1,1.108197775E-2,4.192014225E-3,-1.229013316E-2,1.707133818E-2
1.050002754E1,-2.551462129E-2,-6.173679605E-3,-9.348345920E-3,2.786578172E-2
1.051004754E1,-6.643941998E-2,-1.131357998E-2,-2.181779826E-3,6.743110397E-2
1.052006854E1,-9.898529947E-2,-2.311022021E-2,4.984289873E-3,1.017694204E-1
1.053008854E1,-1.337534040E-1,-2.288544923E-2,1.003870368E-2,1.360679699E-1
1.054010854E1,-1.694700569E-1,-1.320084743E-2,1.383164525E-2,1.705452344E-1
1.055012854E1,-2.044876963E-1,-5.628447980E-5,2.118143812E-2,2.055817950E-1
1.056014954E1,-2.366115451E-1,1.065607741E-2,2.578552067E-2,2.382508517E-1
1.057016954E1,-2.749408185E-1,1.177833416E-2,3.342506662E-2,2.772154720E-1
1.058018954E1,-3.023659885E-1,1.207197667E-3,4.036586359E-2,3.050508995E-1
1.059020954E1,-3.350224793E-1,-3.197670681E-3,4.361838102E-2,3.378651357E-1
1.060023054E1,-3.645469546E-1,-1.530243084E-3,5.059463531E-2,3.680443464E-1
1.061025054E1,-3.937996626E-1,3.125495277E-3,5.662962794E-2,3.978628630E-1
1.062027054E1,-4.221191406E-1,1.016583480E-2,6.268195808E-2,4.268687631E-1
1.063029154E1,-4.483885765E-1,1.111578476E-2,6.845542789E-2,4.537202021E-1
1.064031154E1,-4.677545428E-1,-2.222333802E-3,7.524064183E-2,4.737725248E-1
1.065033154E1,-5.156738758E-1,2.449583076E-2,7.959730923E-2,5.223555528E-1
1.066035154E1,-5.374640226E-1,-2.730468288E-2,8.288927376E-2,5.445032167E-1
1.067037254E1,-5.589019656E-1,-1.335131750E-2,8.643048257E-2,5.657030079E-1
1.068039254E1,-5.855471492E-1,6.268512458E-3,8.802915365E-2,5.921603584E-1
1.069041254E1,-5.980853438E-1,1.502658334E-2,8.999723196E-2,6.050052714E-1
1.070043354E1,-6.156448126E-1,1.562182326E-2,9.365225583E-2,6.229232069E-1
1.071045354E1,-6.284245253E-1,1.698589325E-2,9.954849631E-2,6.364870836E-1
1.072047354E1,-6.534298658E-1,2.624904364E-2,9.694755822E-2,6.611039486E-1
1.073049354E1,-6.763442755E-1,1.147968415E-2,9.964080900E-2,6.837409253E-1
1.074051454E1,-7.031093836E-1,-2.229823917E-2,9.836370498E-2,7.103065783E-1
1.075053454E1,-7.216913104E-1,-1.770242304E-2,9.618044645E-2,7.282873070E-1
1.076055454E1,-7.161251903E-1,-5.622966215E-3,9.674146771E-2,7.226519338E-1
1.077057554E1,-7.232598066E-1,2.742606401E-2,9.653427452E-2,7.301888818E-1
1.078059554E1,-7.280731201E-1,3.837496508E-3,9.545709193E-2,7.343141365E-1
1.079061554E1,-7.596457005E-1,1.822762005E-2,9.340459108E-2,7.655836035E-1
1.080063554E1,-7.584677935E-1,-7.773262914E-3,9.171579778E-2,7.640324633E-1
1.081065654E1,-7.700341940E-1,1.587001421E-2,8.694181591E-2,7.750892830E-1
1.082067654E1,-7.597770095E-1,-1.687434874E-2,8.348796517E-2,7.645365185E-1
1.083069654E1,-7.894915342E-1,-6.434479728E-4,8.118379861E-2,7.936549035E-1
1.084071754E1,-7.859218717E-1,-8.215629496E-3,7.541186363E-2,7.895743373E-1
1.085073754E1,-7.702632546E-1,2.342206193E-3,7.077423483E-2,7.735114477E-1
1.086075754E1,-7.725708485E-1,2.384417504E-2,7.004065812E-2,7.761056335E-1
1.087077754E1,-7.582110763E-1,2.365029603E-2,6.896980107E-2,7.617087410E-1
1.088079854E1,-7.708146572E-1,2.406008076E-3,6.406752765E-2,7.734763556E-1
1.089081854E1,-7.767997980E-1,-7.712672465E-3,5.603090674E-2,7.788561318E-1
1.090083854E1,-7.567764521E-1,-1.934571005E-2,5.463419110E-2,7.589925887E-1
1.091085954E1,-7.530541420E-1,1.474141981E-2,5.131216347E-2,7.549442286E-1
1.092087954E1,-7.327881455E-1,-5.642970093E-3,4.905236512E-2,7.344497559E-1
1.093089954E1,-7.315324545E-1,5.123391282E-3,4.660332575E-2,7.330333219E-1
1.094091954E1,-7.123786807E-1,-2.173010958E-3,4.267445952E-2,7.136590336E-1
1.095094054E1,-6.983361244E-1,-2.964236075E-3,4.409259185E-2,6.997330105E-1
1.096096054E1,-6.945363879E-1,-7.259852253E-3,3.792107105E-2,6.956087314E-1
1.097098054E1,-6.732122302E-1,-6.520292722E-3,3.682198748E-2,6.742500129E-1
1.098100054E1,-6.454917192E-1,-1.716900850E-3,3.451567888E-2,6.464161504E-1
1.099102154E1,-6.278972626E-1,1.678096713E-3,3.114438057E-2,6.286714251E-1
1.100104154E1,-6.116127372E-1,-7.965569384E-4,3.098837659E-2,6.123977909E-1
1.101106154E1,-5.924111009E-1,-7.039805874E-3,2.673930302E-2,5.930560358E-1
1.102108279E1,-5.679153800E-1,3.392735962E-4,2.863623761E-2,5.686369915E-1
1.103110279E1,-5.406957269E-1,-6.815575063E-3,2.895608358E-2,5.415134125E-1
1.104112279E1,-5.256254077E-1,-2.844254021E-3,2.461653203E-2,5.262092100E-1
1.105114279E1,-4.902218282E-1,-7.723431103E-3,2.455155179E-2,4.908970065E-1
1.106116379E1,-4.627109170E-1,-8.913655765E-4,2.517256513E-2,4.633959919E-1
1.107118379E1,-4.324249029E-1,1.176876947E-2,2.552037314E-2,4.333371552E-1
1.108120379E1,-4.006697536E-1,-1.107479166E-2,2.777326852E-2,4.017838435E-1
1.109122479E1,-3.776011765E-1,-5.844343454E-3,2.374417149E-2,3.783921121E-1
1.110124479E1,-3.490828872E-1,-1.706554182E-2,2.461463213E-2,3.503654877E-1
1.111126479E1,-3.227988183E-1,1.920399955E-3,2.211126126E-2,3.235609262E-1
1.112128479E1,-2.748447955E-1,8.913721889E-3,2.386558242E-2,2.760229738E-1
1.113130579E1,-2.471561730E-1,3.050822951E-2,2.484882250E-2,2.502686355E-1
1.114132579E1,-2.116091102E-1,4.963987507E-3,2.310072258E-2,2.129241651E-1
1.115134579E1,-1.933384687E-1,-6.156096235E-3,2.469647489E-2,1.950066072E-1
1.116136679E1,-1.617452949E-1,-1.528497413E-2,2.158225328E-2,1.638931497E-1
1.117138679E1,-1.282991916E-1,-1.248998754E-2,1.617284119E-2,1.299162928E-1
1.118140679E1,-8.913614601E-2,-3.428159049E-3,1.852704585E-2,9.110574201E-2
1.119142679E1,-5.155149102E-2,5.656682421E-3,1.517599076E-2,5.403577498E-2
1.120144779E1,-1.518275216E-2,5.375089590E-3,1.145879179E-2,1.976642256E-2
1.121146779E1,1.823752187E-2,2.364652231E-3,1.331980806E-2,2.270718104E-2
1.122148779E1,5.049069971E-2,9.132073028E-4,9.468507022E-3,5.137895805E-2
1.123150779E1,7.883445919E-2,-3.381672781E-3,9.186211973E-3,7.943987762E-2
1.124152879E1,1.122776717E-1,-2.824059920E-3,4.685759079E-3,1.124108857E-1
1.125154879E1,1.461267173E-1,-1.403529895E-3,1.000619377E-4,1.461334918E-1
1.126156879E1,1.735856682E-1,-9.135203436E-5,-5.048986524E-3,1.736591052E-1
1.127158979E1,2.120513022E-1,2.097500023E-3,-8.318017237E-3,2.122247480E-1
1.128160979E1,2.367446721E-1,-2.443455625E-3,-1.415113825E-2,2.371798156E-1
1.129162979E1,2.633789182E-1,-1.925521065E-4,-1.981941052E-2,2.641236465E-1
1.130164979E1,2.928386033E-1,2.682209015E-7,-2.319919318E-2,2.937561065E-1
1.131167079E1,3.184696734E-1,3.096459201E-3,-2.899290062E-2,3.198016717E-1
1.132169079E1,3.508538902E-1,1.668782905E-3,-3.528893739E-2,3.526280564E-1
1.133171079E1,3.816820979E-1,4.975629970E-3,-4.189197719E-2,3.840064043E-1
1.134173179E1,4.105862081E-1,6.262684241E-3,-4.391596094E-2,4.129756253E-1
1.135175179E1,4.319452941E-1,2.504431177E-3,-5.104843900E-2,4.349585640E-1
1.136177179E1,4.495911300E-1,-5.876802839E-3,-5.881155282E-2,4.534595018E-1
1.137179179E1,4.818785191E-1,-1.561838016E-2,-6.210668385E-2,4.861152961E-1
1.138181279E1,4.931079149E-1,5.391211249E-3,-6.715881079E-2,4.976894481E-1
1.139183279E1,5.119234324E-1,1.741378568E-2,-7.079322636E-2,5.170885044E-1
1.140185279E1,5.405420065E-1,1.231628470E-3,-7.336819917E-2,5.454998353E-1
1.141187379E1,5.493996739E-1,1.198041253E-2,-8.208046854E-2,5.556264350E-1
1.142189379E1,5.751967430E-1,-2.037798055E-2,-8.018661290E-2,5.811165530E-1
1.143191379E1,5.759896040E-1,-3.835512325E-5,-8.164416254E-2,5.817471914E-1
1.144193379E1,6.023930907E-1,-7.959091105E-3,-8.628161252E-2,6.085928849E-1
1.145195479E1,6.198852658E-1,3.171856282E-3,-8.780521154E-2,6.260811119E-1
1.146197479E1,6.345974803E-1,7.888739929E-3,-8.933728188E-2,6.409035373E-1
1.147199479E1,6.474709511E-1,1.142994594E-2,-8.971545100E-2,6.537569413E-1
1.148201579E1,6.562221050E-1,5.053135101E-3,-9.161422402E-2,6.626055775E-1
1.149203579E1,6.663474441E-1,3.464293201E-3,-9.043231606E-2,6.724648105E-1
1.150205579E1,6.738644838E-1,7.205348462E-3,-8.541937917E-2,6.792950242E-1
1.151207579E1,6.815005541E-1,6.063385401E-3,-8.720582724E-2,6.870841478E-1
1.152209679E1,6.843737364E-1,2.870709635E-3,-8.215477318E-2,6.892931588E-1
1.153211679E1,6.897682548E-1,-3.308356507E-3,-7.736320794E-2,6.941010419E-1
1.154213679E1,6.900016069E-1,-7.648137398E-4,-7.414312661E-2,6.939740671E-1
1.155215679E1,6.928333640E-1,-1.968562603E-3,-7.012068480E-2,6.963755136E-1
1.156217779E1,6.903836131E-1,3.504810622E-3,-7.043004781E-2,6.939756542E-1
1.157219779E1,6.923099160E-1,4.165274557E-3,-6.333378702E-2,6.952133039E-1
1.158221779E1,6.907857060E-1,1.309822686E-2,-6.071061641E-2,6.935720829E-1
1.159223879E1,6.918352246E-1,1.357360091E-2,-5.859473348E-2,6.944447879E-1
1.160225879E1,6.813891530E-1,1.322210114E-2,-5.510715023E-2,6.837417640E-1
1.161227879E1,6.794330478E-1,5.938355811E-3,-5.134649947E-2,6.813963556E-1
1.162229879E1,6.684281826E-1,4.843865521E-3,-5.214136839E-2,6.704762640E-1
1.163231979E1,6.593430638E-1,-2.291009063E-3,-4.417159408E-2,6.608249801E-1
1.164233979E1,6.439892650E-1,-4.805333912E-3,-4.408468306E-2,6.455143096E-1
1.165235979E1,6.323842406E-1,-2.534455853E-3,-4.247293994E-2,6.338140121E-1
1.166238079E1,6.182060838E-1,7.571534952E-4,-3.926464170E-2,6.194522156E-1
1.167240079E1,6.027418971E-1,-1.811731607E-3,-4.148199409E-2,6.041703673E-1
1.168242079E1,5.909913778E-1,4.216569476E-3,-4.252422601E-2,5.925343011E-1
1.169244079E1,5.750776529E-1,2.716943622E-3,-3.914866969E-2,5.764150475E-1
1.170246179E1,5.613403916E-1,8.163061924E-3,-4.028737918E-2,5.628434452E-1
1.171248179E1,5.401357412E-1,9.594244882E-3,-3.494907171E-2,5.413502619E-1
1.172250179E1,5.201839805E-1,5.745268892E-3,-3.456569463E-2,5.213627997E-1
1.173252279E1,4.939555824E-1,-3.359279828E-3,-3.458646685E-2,4.951763583E-1
1.174254279E1,4.740929604E-1,-5.086658522E-3,-3.610231355E-2,4.754927825E-1
1.175256279E1,4.477923810E-1,-3.228836926E-3,-3.414755315E-2,4.491041052E-1
1.176258279E1,4.239474237E-1,-2.132449299E-4,-3.831094876E-2,4.256749844E-1
1.177260379E1,4.037859440E-1,3.031017957E-3,-3.698442876E-2,4.054875135E-1
1.178262379E1,3.796444833E-1,7.814127952E-3,-3.356560692E-2,3.812055145E-1
1.179264379E1,3.539804220E-1,7.387756370E-3,-3.401994333E-2,3.556881705E-1
1.180266479E1,3.292414546E-1,6.689499132E-4,-3.360593691E-2,3.309527790E-1
1.181268479E1,2.935494781E-1,-4.981478676E-3,-3.483338654E-2,2.956509361E-1
1.182270479E1,2.633716166E-1,-4.239994567E-3,-3.343814239E-2,2.655196704E-1
1.183272479E1,2.355580926E-1,-8.970833384E-3,-3.118111566E-2,2.377821541E-1
1.184274579E1,2.060721964E-1,2.675191499E-3,-3.321753070E-2,2.087493979E-1
1.185276579E1,1.926562637E-1,-1.221480779E-2,-2.747868374E-2,1.949890139E-1
1.186278579E1,1.492459029E-1,1.299711969E-2,-2.629253268E-2,1.521004994E-1
1.187280679E1,1.226457134E-1,4.283313174E-4,-2.556122839E-2,1.252818059E-1
1.188282679E1,1.006627306E-1,-2.982661128E-2,-2.492761984E-2,1.079073599E-1
1.189284679E1,5.373942852E-2,7.362303324E-3,-1.864415780E-2,5.735620549E-2
1.190286679E1,3.186648339E-2,3.535903292E-3,-1.364819519E-2,3.484607019E-2
1.191288779E1,9.098988958E-4,9.238796309E-3,-1.133523975E-2,1.465165292E-2
1.192290779E1,-2.206415869E-2,-9.788963944E-3,-6.706966553E-3,2.505263089E-2
1.193292779E1,-5.913323164E-2,-5.858670920E-3,-5.896853982E-4,5.942567491E-2
1.194294879E1,-8.993635327E-2,-1.805040054E-2,2.519313130E-4,9.173019169E-2
1.195296879E1,-1.177823693E-1,-1.711669751E-2,4.721248057E-3,1.191132152E-1
1.196298879E1,-1.433033794E-1,-1.371896081E-2,1.018160954E-2,1.443181680E-1
1.197300879E1,-1.714950651E-1,-3.560185432E-4,1.233397610E-2,1.719383932E-1
1.198302979E1,-1.947938502E-1,9.885670617E-3,2.006579190E-2,1.960739824E-1
1.199304979E1,-2.214161456E-1,1.169741899E-2,2.624885365E-2,2.232732439E-1
1.200306979E1,-2.444173098E-1,5.859983619E-3,3.144523501E-2,2.465014473E-1
1.201308979E1,-2.755267620E-1,-3.901892342E-4,3.711537272E-2,2.780156465E-1
1.202311129E1,-2.918067575E-1,-3.526763758E-3,4.484298825E-2,2.952533071E-1
1.203313129E1,-3.158601820E-1,-1.439910615E-3,4.700041562E-2,3.193411452E-1
1.204315129E1,-3.375107050E-1,5.845677573E-3,5.069810897E-2,3.413472516E-1
1.205317229E1,-3.584647179E-1,9.638817981E-3,5.831900984E-2,3.633056120E-1
1.206319229E1,-3.795268536E-1,8.763377555E-3,6.305941939E-2,3.848297282E-1
1.207321229E1,-4.081089795E-1,-9.044301696E-4,7.028511167E-2,4.141180436E-1
1.208323229E1,-4.267953336E-1,-3.055953607E-2,7.000411302E-2,4.335766575E-1
1.209325329E1,-4.411210120E-1,-1.644796692E-3,7.533123344E-2,4.475100527E-1
1.210327329E1,-4.517288208E-1,1.496366318E-2,7.683207095E-2,4.584604736E-1
1.211329329E1,-4.561869502E-1,1.853895746E-2,7.790825516E-2,4.631629548E-1
1.212331429E1,-4.773736894E-1,1.709073596E-2,8.231209219E-2,4.847195201E-1
1.213333429E1,-4.978674948E-1,1.115588192E-2,8.301597089E-2,5.048644843E-1
1.214335429E1,-5.201576352E-1,4.262190312E-3,8.635184914E-2,5.272938209E-1
1.215337429E1,-5.252003074E-1,1.371614542E-2,8.716011792E-2,5.325602141E-1
1.216339529E1,-5.389043689E-1,2.491293475E-2,8.538304269E-2,5.461948710E-1
1.217341529E1,-5.424740911E-1,-1.261055004E-4,8.267407864E-2,5.487377868E-1
1.218343529E1,-5.522911549E-1,-4.931155127E-4,8.298312873E-2,5.584907900E-1
1.219345629E1,-5.708773732E-1,-9.495665319E-3,8.260282874E-2,5.769006589E-1
1.220347629E1,-5.857161283E-1,4.303783178E-3,7.958473265E-2,5.911138936E-1
1.221349629E1,-5.953818560E-1,-1.152684540E-2,7.533113658E-2,6.002392879E-1
1.222351629E1,-5.969780087E-1,7.710093632E-4,7.368617505E-2,6.015089274E-1
1.223353729E1,-5.796168447E-1,-3.205356188E-3,7.198894769E-2,5.840790781E-1
1.224355729E1,-5.975481272E-1,1.755725779E-2,6.632053107E-2,6.014735526E-1
1.225357729E1,-5.948170424E-1,3.975934815E-3,6.444779038E-2,5.983114905E-1
1.226359829E1,-6.008206010E-1,2.764880657E-3,5.986100063E-2,6.038016053E-1
1.227361829E1,-5.966866016E-1,-1.878967881E-2,5.867003649E-2,5.998584215E-1
1.228363829E1,-6.147320867E-1,2.383523621E-3,5.137620494E-2,6.168798376E-1
1.229365829E1,-5.928731561E-1,-1.131471153E-2,4.958682507E-2,5.950508004E-1
1.230367929E1,-5.836665034E-1,-1.862806967E-3,4.759144038E-2,5.856065253E-1
1.231369929E1,-5.902253389E-1,-5.336900242E-3,4.353012145E-2,5.918524349E-1
1.232371929E1,-5.816322565E-1,-7.503669709E-3,4.224237427E-2,5.832124871E-1
1.233374029E1,-5.783506632E-1,-1.376928855E-2,3.538606688E-2,5.795957700E-1
1.234376029E1,-5.710111260E-1,-6.631033029E-3,3.431748971E-2,5.720798605E-1
1.235378029E1,-5.494639874E-1,-5.840606522E-3,3.174993768E-2,5.504115230E-1
1.236380029E1,-5.467560291E-1,9.385081008E-3,2.966264822E-2,5.476404914E-1
1.237382129E1,-5.240299702E-1,1.084928680E-2,2.630813047E-2,5.248020907E-1
1.238384129E1,-5.268542171E-1,1.449503284E-2,2.370216511E-2,5.275862627E-1
1.239386129E1,-5.110459924E-1,-7.129035890E-3,2.185526304E-2,5.115627840E-1
1.240388229E1,-4.958787560E-1,-1.729165204E-2,1.980306394E-2,4.965751738E-1
1.241390229E1,-4.912975729E-1,-1.580214500E-2,2.059295774E-2,4.919828074E-1
1.242392229E1,-4.671880007E-1,-1.136899553E-2,2.053035237E-2,4.677770595E-1
1.243394229E1,-4.471682310E-1,-8.364949375E-3,1.976628974E-2,4.476830412E-1
1.244396329E1,-4.300270975E-1,1.184122753E-3,1.624899730E-2,4.303356093E-1
1.245398329E1,-4.064541459E-1,2.284008311E-3,1.559945289E-2,4.067597969E-1
1.246400329E1,-3.862086535E-1,-2.957912860E-3,1.404779032E-2,3.864753726E-1
1.247402329E1,-3.629339337E-1,1.090703718E-2,1.293592062E-2,3.633281461E-1
1.248404429E1,-3.490860760E-1,-1.206193585E-2,1.117020939E-2,3.494729637E-1
1.249406429E1,-3.318018913E-1,-2.405313542E-3,1.346239168E-2,3.320835988E-1
1.250408429E1,-3.063371181E-1,-1.343109645E-2,1.205636933E-2,3.068683437E-1
1.251410529E1,-2.810314894E-1,-4.708178341E-3,1.550036948E-2,2.814980043E-1
1.252412529E1,-2.440474182E-1,-5.772989243E-4,1.504228450E-2,2.445112389E-1
1.253414529E1,-2.301047146E-1,-1.195112709E-2,1.426490769E-2,2.308560086E-1
1.254416529E1,-2.126448303E-1,-2.801052528E-3,1.534714643E-2,2.132163330E-1
1.255418629E1,-1.884239018E-1,-6.465828046E-3,1.724491641E-2,1.893218446E-1
1.256420629E1,-1.540630013E-1,-3.195791505E-3,1.734983176E-2,1.550697846E-1
1.257422629E1,-1.254390925E-1,-1.587508246E-3,1.633117162E-2,1.265076807E-1
1.258424729E1,-1.030626595E-1,-1.335178968E-4,1.516132522E-2,1.041719511E-1
1.259426729E1,-8.294061571E-2,2.475314774E-3,1.411709934E-2,8.416986047E-2
1.260428729E1,-5.206023902E-2,1.278045471E-3,1.625656709E-2,5.455435693E-2
1.261430729E1,-2.522703074E-2,5.576387513E-3,1.505308598E-2,2.990141427E-2
1.262432829E1,5.647026468E-3,2.682129852E-3,1.236840058E-2,1.385857357E-2
1.263434829E1,2.614564449E-2,1.017930917E-4,1.240595151E-2,2.893981203E-2
1.264436829E1,5.219132453E-2,-1.459092600E-3,8.896135725E-3,5.296418166E-2
1.265438929E1,7.834489644E-2,1.713264966E-3,8.731019683E-3,7.884851793E-2
1.266440929E1,1.032939255E-1,3.866921179E-5,5.885166582E-3,1.034614505E-1
1.267442929E1,1.299401820E-1,-2.775759203E-3,4.014561884E-3,1.300318132E-1
1.268444929E1,1.504642069E-1,-1.342543634E-3,-2.959111240E-3,1.504992901E-1
1.269447029E1,1.771757156E-1,-2.598223975E-3,-2.413962269E-3,1.772112078E-1
1.270449029E1,1.934095174E-1,1.991460100E-3,-7.461485919E-3,1.935636358E-1
1.271451029E1,2.176227123E-1,1.332327840E-3,-9.814121760E-3,2.178479676E-1
1.272453129E1,2.398993373E-1,-4.234111402E-4,-1.600878686E-2,2.404332601E-1
1.273455129E1,2.566575408E-1,-9.533802513E-4,-2.256335877E-2,2.576491943E-1
1.274457129E1,2.823907137E-1,9.557023877E-4,-2.799420618E-2,2.837765038E-1
1.275459129E1,3.009039462E-1,1.182086673E-2,-3.069438599E-2,3.026963215E-1
1.276461229E1,3.255715668E-1,1.507956069E-3,-3.606137633E-2,3.275660879E-1
1.277463229E1,3.389875293E-1,-8.414846379E-4,-4.307641089E-2,3.417145450E-1
1.278465229E1,3.513803482E-1,-1.038277056E-2,-4.663482308E-2,3.546135330E-1
1.279467329E1,3.614742756E-1,-8.534537628E-3,-5.030013248E-2,3.650569731E-1
1.280469329E1,3.923785388E-1,-3.497253638E-3,-5.644046888E-2,3.964324344E-1
1.281471329E1,3.972190917E-1,1.831030659E-2,-6.103255972E-2,4.022974614E-1
1.282473329E1,4.236932993E-1,-7.210035808E-3,-6.390002370E-2,4.285454579E-1
1.283475429E1,4.238416255E-1,1.562444028E-2,-6.640499830E-2,4.292964831E-1
1.284477429E1,4.457023442E-1,-1.351763308E-2,-6.882429868E-2,4.511874224E-1
1.285479429E1,4.469561577E-1,6.682708859E-3,-7.463211566E-2,4.531935769E-1
1.286481429E1,4.610491991E-1,-1.682546362E-2,-7.264684141E-2,4.670407089E-1
1.287483529E1,4.708299041E-1,3.180202562E-3,-7.626500726E-2,4.769772150E-1
1.288485529E1,4.864964187E-1,-2.320836531E-3,-7.290551066E-2,4.919343098E-1
1.289487529E1,4.961213768E-1,1.729298849E-3,-7.514309883E-2,5.017827182E-1
1.290489629E1,4.988525212E-1,-4.193019122E-3,-7.473498583E-2,5.044370500E-1
1.291491629E1,5.036592484E-1,-6.318487227E-3,-7.496854663E-2,5.092473316E-1
1.292493629E1,5.071640611E-1,-7.741495501E-4,-7.479672879E-2,5.126504996E-1
1.293495629E1,5.127454996E-1,1.058105379E-3,-7.011303306E-2,5.175180232E-1
1.294497729E1,5.215483308E-1,1.135421637E-2,-7.098117471E-2,5.264787809E-1
1.295499729E1,5.218519568E-1,2.056688815E-2,-6.661092490E-2,5.264878698E-1
1.296501729E1,5.240314007E-1,1.768479496E-2,-6.356197596E-2,5.281683308E-1
1.297503829E1,5.292751789E-1,1.034645550E-2,-5.808518827E-2,5.325534276E-1
1.298505829E1,5.198552012E-1,4.223767668E-3,-5.716971308E-2,5.230063542E-1
1.299507829E1,5.138226151E-1,-2.776084468E-3,-4.896477982E-2,5.161578597E-1
1.300509829E1,5.098521113E-1,-9.806289338E-3,-4.590663686E-2,5.120085527E-1
1.301511929E1,5.067913532E-1,-9.924001060E-3,-3.968229517E-2,5.084394222E-1
1.302513879E1,5.069046021E-1,1.063788310E-3,-3.822947666E-2,5.083452568E-1
1.303515879E1,5.060688853E-1,7.026872598E-3,-3.605261073E-2,5.074001226E-1
1.304517979E1,4.976839721E-1,1.008760277E-2,-3.015951253E-2,4.986989994E-1
1.305519979E1,4.911768138E-1,1.425465103E-2,-3.019892797E-2,4.923107076E-1
1.306521979E1,4.814992845E-1,7.234796882E-3,-2.700487152E-2,4.823102387E-1
1.307523979E1,4.712263942E-1,-2.444462152E-3,-2.568128146E-2,4.719320059E-1
1.308526079E1,4.532114565E-1,-4.641362466E-3,-2.345622331E-2,4.538417797E-1
1.309528079E1,4.414104521E-1,-4.231235944E-3,-2.258217335E-2,4.420079696E-1
1.310530079E1,4.290531874E-1,-7.262311876E-3,-2.123421617E-2,4.296396987E-1
1.311532179E1,4.192202687E-1,-4.784415942E-4,-2.427155152E-2,4.199225772E-1
1.312534179E1,4.076833725E-1,1.142282505E-2,-2.480271831E-2,4.085968526E-1
1.313536179E1,3.929936290E-1,9.776458144E-3,-2.165113203E-2,3.937109893E-1
1.314538179E1,3.784497380E-1,7.263853215E-3,-2.054177411E-2,3.790764201E-1
1.315540279E1,3.589061201E-1,-1.957608620E-3,-2.257403173E-2,3.596206643E-1
1.316542279E1,3.377458453E-1,-4.168326035E-3,-2.626477927E-2,3.387911888E-1
1.317544279E1,3.168123364E-1,-3.192810575E-3,-2.702830732E-2,3.179792131E-1
1.318546379E1,3.026039004E-1,1.646699850E-3,-2.727005444E-2,3.038346393E-1
1.319548379E1,2.887341380E-1,5.472863093E-3,-2.425562218E-2,2.898028466E-1
1.320550379E1,2.690287530E-1,1.137898304E-2,-2.500116639E-2,2.704274571E-1
1.321552379E1,2.467503548E-1,4.526403733E-3,-2.340140566E-2,2.478988739E-1
1.322554479E1,2.201129794E-1,-1.383305527E-3,-2.550310455E-2,2.215898138E-1
1.323556479E1,2.008047998E-1,-1.477634162E-2,-2.532706968E-2,2.029343942E-1
1.324558479E1,1.738954931E-1,5.796178244E-3,-2.611873485E-2,1.759415429E-1
1.325560579E1,1.644085050E-1,-1.836881228E-2,-2.232452855E-2,1.669309868E-1
1.326562579E1,1.239710674E-1,1.401788928E-2,-2.352161892E-2,1.269590222E-1
1.327564579E1,1.163701415E-1,-6.212547421E-3,-2.348113991E-2,1.188779606E-1
1.328566579E1,8.906498551E-2,5.702427588E-3,-2.290273644E-2,9.213915922E-2
1.329568679E1,7.761632651E-2,-3.223216906E-2,-1.882543601E-2,8.612551251E-2
1.330570679E1,3.927825764E-2,9.622673970E-4,-1.765710860E-2,4.307529415E-2
1.331572679E1,2.174107544E-2,2.233660547E-3,-1.669144630E-2,2.750032692E-2
1.332574679E1,-2.437494230E-3,8.511738852E-3,-1.471193042E-2,1.717067188E-2
1.333576779E1,-1.555915549E-2,-1.047793124E-2,-1.160801575E-2,2.205947398E-2
1.334578779E1,-4.865252599E-2,-8.654168807E-3,-5.925490055E-3,4.977021555E-2
1.335580779E1,-6.775458902E-2,-1.553977281E-2,-4.549168516E-3,6.966249928E-2
1.336582879E1,-8.919961751E-2,-1.537123881E-2,-2.917820239E-4,9.051481582E-2
1.337584879E1,-1.070523858E-1,-1.389930956E-2,5.182345398E-3,1.080752553E-1
1.338586879E1,-1.297479421E-1,-3.941979259E-3,1.039832085E-2,1.302236259E-1
1.339588879E1,-1.490436196E-1,2.993158298E-3,1.036183536E-2,1.494333536E-1
1.340590979E1,-1.660466343E-1,8.221839555E-3,1.516533829E-2,1.669403214E-1
1.341592979E1,-1.826402545E-1,1.006447989E-2,2.042481489E-2,1.840541480E-1
1.342594979E1,-2.011092305E-1,6.543475203E-3,2.720634267E-2,2.030466073E-1
1.343597079E1,-2.164439708E-1,1.606717706E-5,3.254837543E-2,2.188775674E-1
1.344599079E1,-2.383386195E-1,8.491040207E-4,3.666136041E-2,2.411432642E-1
1.345601079E1,-2.486025542E-1,1.033100532E-3,4.132654890E-2,2.520162314E-1
1.346603079E1,-2.626780868E-1,1.391191385E-3,4.551947489E-2,2.665965778E-1
1.347605179E1,-2.806480527E-1,6.252259016E-3,4.898691177E-2,2.849598880E-1
1.348607179E1,-2.941235006E-1,4.230692051E-3,5.278714746E-2,2.988528322E-1
1.349609179E1,-3.074014783E-1,3.949995153E-3,5.802078918E-2,3.128540927E-1
1.350611279E1,-3.194744885E-1,4.371276591E-3,6.108328700E-2,3.252909848E-1
1.351613279E1,-3.390436769E-1,6.777442992E-3,6.251873076E-2,3.448262465E-1
1.352615279E1,-3.264020085E-1,-1.294095721E-2,6.840953231E-2,3.337448182E-1
1.353617279E1,-3.542999625E-1,-1.286964165E-3,7.138241827E-2,3.614215950E-1
1.354619379E1,-3.711934090E-1,1.872381079E-3,7.380017638E-2,3.784633651E-1
1.355621379E1,-3.780771494E-1,1.983181573E-4,6.996682286E-2,3.844967185E-1
1.356623379E1,-3.845717907E-1,2.547528129E-3,7.124983519E-2,3.911246491E-1
1.357625479E1,-3.879867792E-1,1.351122931E-2,7.566162944E-2,3.955262018E-1
1.358627479E1,-3.856957257E-1,3.860257939E-2,7.262321562E-2,3.943671936E-1
1.359629479E1,-4.069815576E-1,4.375633225E-2,6.999600679E-2,4.152686429E-1
1.360631479E1,-4.087966383E-1,-7.285371888E-3,6.814229488E-2,4.145010741E-1
1.361633579E1,-4.265511334E-1,-1.199224219E-2,6.474436820E-2,4.316034250E-1
1.362635579E1,-4.330064952E-1,-8.196083829E-3,6.402120739E-2,4.377904929E-1
1.363637579E1,-4.225304425E-1,2.963172086E-2,6.589926779E-2,4.286638860E-1
1.364639679E1,-4.262702763E-1,4.258001968E-2,5.978122354E-2,4.325427161E-1
1.365641679E1,-4.196129143E-1,7.834554650E-3,5.534120277E-2,4.233190603E-1
1.366643679E1,-4.372918308E-1,3.354521468E-4,5.258399248E-2,4.404422029E-1
1.367645679E1,-4.367269576E-1,3.599533811E-4,4.860097170E-2,4.394230530E-1
1.368647779E1,-4.381835163E-1,5.830020644E-3,4.772949591E-2,4.408138925E-1
1.369649779E1,-4.325727522E-1,3.417197149E-3,4.074216262E-2,4.345006180E-1
1.370651779E1,-4.306443632E-1,-3.376526758E-3,3.979114443E-2,4.324919694E-1
1.371653879E1,-4.338076413E-1,4.723428749E-3,3.630588949E-2,4.353498570E-1
1.372655879E1,-4.207584560E-1,-1.765847206E-3,3.166530654E-2,4.219519974E-1
1.373657879E1,-4.173259139E-1,2.951410133E-3,2.802902833E-2,4.182765301E-1
1.374659879E1,-4.074352682E-1,-1.895369962E-2,2.590477280E-2,4.086976850E-1
1.375661979E1,-4.212661386E-1,-1.514484733E-2,2.295718528E-2,4.221629522E-1
1.376663979E1,-4.053136110E-1,-1.171657536E-2,2.036479674E-2,4.059939979E-1
1.377665979E1,-3.895886838E-1,-7.579338271E-4,1.778206229E-2,3.899950240E-1
1.378668079E1,-3.730640411E-1,-1.549906284E-2,1.684835739E-2,3.737657915E-1
1.379670079E1,-3.817728460E-1,3.262374084E-3,1.441822294E-2,3.820589407E-1
1.380672079E1,-3.615889847E-1,-1.804290712E-2,9.611519054E-3,3.621664281E-1
1.381674079E1,-3.562195301E-1,-5.659474060E-3,8.817098103E-3,3.563735743E-1
1.382676179E1,-3.471539021E-1,-8.571002632E-3,9.598195553E-3,3.473923130E-1
1.383678179E1,-3.263935149E-1,2.050405927E-2,6.814659573E-3,3.271079066E-1
1.384680179E1,-3.129875064E-1,1.473888010E-2,8.162129670E-3,3.134406389E-1
1.385682279E1,-2.976557016E-1,4.134438932E-3,6.710972637E-3,2.977600501E-1
1.386684279E1,-2.904960811E-1,-1.086619776E-2,6.318357773E-3,2.907678955E-1
1.387686279E1,-2.899429500E-1,-3.391504055E-3,6.278144196E-3,2.900307426E-1
1.388688279E1,-2.630170286E-1,-7.195944898E-3,6.267770194E-3,2.631900908E-1
1.389690379E1,-2.481083721E-1,1.654906571E-2,4.567874596E-3,2.487016312E-1
1.390692379E1,-2.212081105E-1,2.631493611E-3,4.069017246E-3,2.212611800E-1
1.391694379E1,-2.098673135E-1,4.102624021E-3,3.420537570E-3,2.099352778E-1
1.392696479E1,-1.906539500E-1,-2.701163059E-3,6.570271682E-3,1.907862505E-1
1.393698479E1,-1.792063564E-1,-4.233279265E-3,8.492540568E-3,1.794574102E-1
1.394700479E1,-1.554833055E-1,5.807488225E-3,6.431091111E-3,1.557245778E-1
1.395702479E1,-1.418346018E-1,-9.778928012E-3,8.006351069E-3,1.423965707E-1
1.396704579E1,-1.243855357E-1,3.048522398E-3,6.065750495E-3,1.245706559E-1
1.397706579E1,-1.064645946E-1,-7.587876171E-3,6.786135957E-3,1.069501632E-1
1.398708579E1,-8.812092245E-2,1.675263164E-3,7.484550122E-3,8.845406701E-2
1.399710679E1,-6.345658749E-2,-1.661677612E-3,5.020061042E-3,6.367653164E-2
1.400712679E1,-5.030215532E-2,4.664284643E-3,9.874175303E-3,5.147389356E-2
1.401714679E1,-3.040008619E-2,4.159082659E-3,9.866451845E-3,3.223057680E-2
1.402716692E1,-9.204121307E-3,1.107336837E-3,8.098506369E-3,1.230966487E-2
1.403718792E1,7.963681594E-3,-2.704978455E-3,8.109426126E-3,1.168331824E-2
1.404720792E1,2.596688084E-2,-7.336547133E-4,8.720865473E-3,2.740201899E-2
1.405722792E1,4.352430254E-2,2.844035858E-3,7.134686690E-3,4.419680086E-2
1.406724892E1,6.259880215E-2,2.458852716E-3,4.707596730E-3,6.282370137E-2
1.407726892E1,8.423245698E-2,7.544296095E-4,5.084434524E-3,8.438914295E-2
1.408728892E1,1.006198376E-1,-5.610372871E-3,1.355143962E-3,1.007852391E-1
1.409730892E1,1.163844243E-1,-3.200478619E-3,-4.749803338E-4,1.164293901E-1
1.410732992E1,1.329930574E-1,4.893511068E-4,-8.179194992E-5,1.329939828E-1
1.411734992E1,1.451671720E-1,-6.060071755E-4,-7.375391666E-3,1.453556723E-1
1.412736992E1,1.599434167E-1,2.914951649E-3,-9.611949325E-3,1.602584883E-1
1.413738992E1,1.751524508E-1,7.022344507E-3,-1.148867887E-2,1.756692463E-1
1.414741092E1,1.946675032E-1,8.974279044E-4,-1.445174776E-2,1.952052643E-1
1.415743092E1,2.042255849E-1,4.285234958E-3,-1.934823580E-2,2.051848118E-1
1.416745092E1,2.158343494E-1,2.619067673E-3,-2.337280475E-2,2.171119847E-1
1.417747192E1,2.257482260E-1,-1.051567262E-3,-2.697766013E-2,2.273569034E-1
1.418749192E1,2.453393489E-1,-2.903243294E-3,-2.949823625E-2,2.471233920E-1
1.419751192E1,2.484821379E-1,-4.036002792E-4,-3.364264593E-2,2.507496030E-1
1.420753192E1,2.631222010E-1,-8.197582327E-3,-3.780289367E-2,2.659502806E-1
1.421755292E1,2.736083865E-1,1.622824231E-3,-4.369806498E-2,2.770806807E-1
1.422757292E1,2.775895298E-1,9.264591150E-3,-4.665052891E-2,2.816346064E-1
1.423759292E1,3.009046912E-1,-8.554086089E-3,-5.128469318E-2,3.053635953E-1
1.424761392E1,3.075582683E-1,-2.307331422E-3,-5.143814906E-2,3.118385726E-1
1.425763392E1,3.137895465E-1,4.900780506E-3,-5.150872469E-2,3.180268005E-1
1.426765392E1,3.158338368E-1,1.721881516E-2,-5.373932049E-2,3.208354946E-1
1.427767392E1,3.205390871E-1,4.752025940E-3,-5.616998672E-2,3.254580702E-1
1.428769492E1,3.338105083E-1,-8.366792463E-3,-6.186561659E-2,3.395980170E-1
1.429771492E1,3.449142873E-1,-1.940772682E-2,-5.475044623E-2,3.497715495E-1
1.430773492E1,3.391431570E-1,2.963818610E-3,-5.921558663E-2,3.442867277E-1
1.431775592E1,3.375956118E-1,1.847433485E-2,-5.737081543E-2,3.429336796E-1
1.432777592E1,3.453712463E-1,-1.999780769E-3,-5.867842957E-2,3.503262123E-1
1.433779592E1,3.655774295E-1,-2.055988275E-2,-5.593563989E-2,3.704029719E-1
1.434781592E1,3.505736291E-1,3.368555009E-2,-5.278307945E-2,3.561216635E-1
1.435783692E1,3.579444587E-1,4.801703617E-3,-5.189491436E-2,3.617186393E-1
1.436785692E1,3.681363463E-1,-1.097656600E-2,-4.627612978E-2,3.711958172E-1
1.437787692E1,3.466305435E-1,1.393038221E-2,-4.566679895E-2,3.499031948E-1
1.438789792E1,3.611198664E-1,-1.544138044E-2,-3.949772939E-2,3.636015192E-1
1.439791792E1,3.467246890E-1,1.852244511E-2,-3.640713170E-2,3.491225719E-1
1.440793792E1,3.582773209E-1,4.114185926E-3,-3.694310039E-2,3.602004412E-1
1.441795792E1,3.683107793E-1,-6.976281293E-3,-2.863057703E-2,3.694877652E-1
1.442797892E1,3.460909128E-1,2.934330888E-2,-2.322125062E-2,3.481079950E-1
1.443799892E1,3.516015112E-1,-1.433512429E-3,-2.414456755E-2,3.524324585E-1
1.444801892E1,3.404130340E-1,2.084250096E-3,-2.024493553E-2,3.410208721E-1
1.445803992E1,3.315870464E-1,-9.878402576E-3,-2.102470957E-2,3.323997452E-1
1.446805992E1,3.310162723E-1,5.100055598E-3,-1.493891049E-2,3.313924473E-1
1.447807992E1,3.229034841E-1,1.117259450E-2,-1.193379890E-2,3.233170309E-1
1.448809992E1,3.269721866E-1,-4.722408950E-3,-1.352833956E-2,3.272860032E-1
1.449812092E1,3.045736849E-1,2.038241178E-2,-1.098741777E-2,3.054526078E-1
1.450814092E1,3.009513319E-1,-1.180840284E-2,-1.582545415E-2,3.015983878E-1
1.451816092E1,2.955272794E-1,-2.296331897E-2,-1.192206051E-2,2.966577530E-1
1.452818192E1,2.819064260E-1,-2.084314590E-3,-1.157565787E-2,2.821516848E-1
1.453820192E1,2.584913671E-1,2.918359265E-2,-9.551921859E-3,2.603088707E-1
1.454822192E1,2.574444115E-1,9.209810756E-3,-1.079201046E-2,2.578350502E-1
1.455824192E1,2.510663867E-1,-1.173515245E-2,-1.303385943E-2,2.516782188E-1
1.456826292E1,2.425535768E-1,-2.254040353E-2,-1.357291825E-2,2.439764979E-1
1.457828292E1,2.183707505E-1,9.486783529E-4,-1.457639784E-2,2.188587582E-1
1.458830292E1,2.057628483E-1,1.033313200E-2,-1.384452544E-2,2.064867895E-1
1.459832392E1,1.989882886E-1,1.236379240E-2,-1.641580835E-2,2.000466974E-1
1.460834392E1,1.977680326E-1,-2.085328288E-2,-1.568876579E-2,1.994823087E-1
1.461836392E1,1.607719362E-1,6.570352241E-3,-1.539182197E-2,1.616406297E-1
1.462838392E1,1.574898958E-1,-1.488971710E-2,-1.711566560E-2,1.591154203E-1
1.463840492E1,1.290688962E-1,1.511691790E-2,-1.667278074E-2,1.310163455E-1
1.464842492E1,1.258680969E-1,-3.996783867E-3,-1.501727663E-2,1.268237782E-1
1.465844492E1,1.112995520E-1,5.454242229E-3,-2.028927021E-2,1.132651470E-1
1.466846592E1,9.173023701E-2,3.249704139E-3,-2.062788419E-2,9.407713093E-2
1.467848592E1,7.465298474E-2,4.967443179E-3,-2.013839595E-2,7.748095646E-2
1.468850592E1,5.978860706E-2,3.476402955E-3,-2.029010653E-2,6.323330875E-2
1.469852592E1,4.122717306E-2,3.984267823E-3,-1.886531711E-2,4.551323300E-2
1.470854692E1,2.837840654E-2,-1.029865723E-2,-1.762921363E-2,3.495976933E-2
1.471856692E1,2.129759267E-2,-8.902414702E-4,-1.329358853E-2,2.512169340E-2
1.472858692E1,-6.286432035E-4,1.426012814E-2,-1.096925512E-2,1.800197225E-2
1.473860792E1,-1.832188666E-2,1.076819096E-2,-1.067737211E-2,2.378343420E-2
1.474862792E1,-2.980837598E-2,-2.065454982E-2,-7.467004005E-3,3.702574585E-2
1.475864792E1,-4.471542314E-2,-2.437685058E-2,-4.352437332E-3,5.111402568E-2
1.476866792E1,-6.270550936E-2,-1.262776367E-2,-3.341128584E-3,6.405157656E-2
1.477868892E1,-7.373791933E-2,-5.524579901E-3,6.771739572E-5,7.394461654E-2
1.478870892E1,-8.664403856E-2,-4.155430011E-3,7.135320455E-3,8.703660043E-2
1.479872892E1,-1.033002436E-1,-5.043344572E-5,7.217612118E-3,1.035520970E-1
1.480874992E1,-1.137404591E-1,1.630804036E-4,1.082527358E-2,1.142545630E-1
1.481876992E1,-1.272908747E-1,5.608445965E-3,1.491402462E-2,1.282842531E-1
1.482878992E1,-1.393557489E-1,7.020785473E-3,1.864599995E-2,1.407728294E-1
1.483880992E1,-1.498323679E-1,4.187981132E-3,2.445914783E-2,1.518733932E-1
1.484883092E1,-1.601914763E-1,2.479729708E-3,2.713669464E-2,1.624926409E-1
1.485885092E1,-1.686853617E-1,-9.152682032E-4,3.205768391E-2,1.717069716E-1
1.486887092E1,-1.788160652E-1,3.219603794E-3,3.207017854E-2,1.816976812E-1
1.487889192E1,-1.859530658E-1,3.364745993E-3,3.537276760E-2,1.893174500E-1
1.488891192E1,-2.008977234E-1,6.448463537E-4,4.111154005E-2,2.050621121E-1
1.489893192E1,-2.093508691E-1,1.415088773E-4,4.599524662E-2,2.143440438E-1
1.490895192E1,-2.175350040E-1,-5.436635111E-4,4.691755027E-2,2.225377048E-1
1.491897292E1,-2.183438092E-1,4.734988324E-3,4.840865359E-2,2.236958580E-1
1.492899292E1,-2.277118117E-1,4.278243519E-3,4.983523861E-2,2.331405661E-1
1.493901292E1,-2.326972485E-1,5.598638672E-3,5.378497019E-2,2.388978384E-1
1.494903392E1,-2.411865294E-1,8.684935980E-3,5.627934262E-2,2.478179462E-1
1.495905392E1,-2.512641847E-1,2.135690767E-3,5.251709372E-2,2.567027402E-1
1.496907392E1,-2.536805570E-1,3.988115117E-3,5.711549148E-2,2.600613571E-1
1.497909392E1,-2.569871247E-1,2.038681414E-3,5.570508167E-2,2.629631050E-1
1.498911492E1,-2.480338663E-1,-2.018054761E-2,5.702548847E-2,2.553036617E-1
1.499913492E1,-2.619267404E-1,-1.872353256E-2,5.967027321E-2,2.692893045E-1
1.500915492E1,-2.814728618E-1,8.988976479E-3,5.438697711E-2,2.868200078E-1
1.501917592E1,-2.759981751E-1,-2.742780373E-3,5.392598361E-2,2.812303811E-1
1.502919613E1,-2.649640739E-1,8.752661757E-3,5.021658912E-2,2.698226739E-1
1.503921613E1,-2.705969214E-1,6.430917885E-3,4.930152372E-2,2.751266814E-1
1.504923613E1,-2.693304718E-1,5.978065077E-3,4.720710963E-2,2.735016480E-1
1.505925713E1,-2.787950635E-1,4.334362224E-3,4.877757654E-2,2.830631133E-1
1.506927713E1,-2.764823735E-1,1.410117373E-2,4.301764444E-2,2.801639943E-1
1.507929713E1,-2.803599536E-1,2.517299913E-2,4.203547165E-2,2.846091432E-1
1.508931812E1,-2.723776400E-1,5.753348581E-3,3.330462798E-2,2.744665336E-1
1.509933813E1,-2.739323974E-1,3.545055632E-3,3.144999966E-2,2.757546522E-1
1.510935813E1,-2.744751573E-1,-1.402811613E-4,2.915433981E-2,2.760192152E-1
1.511937813E1,-2.746551931E-1,2.097839257E-3,2.825445682E-2,2.761126407E-1
1.512939912E1,-2.672698498E-1,-5.774649326E-4,2.633358911E-2,2.685646365E-1
1.513941913E1,-2.538046539E-1,6.250613369E-3,1.764263026E-2,2.544938799E-1
1.514943913E1,-2.545560598E-1,-1.483305451E-2,1.801651902E-2,2.556235554E-1
1.515946013E1,-2.630390227E-1,2.550850622E-4,1.470274758E-2,2.634497358E-1
1.516948012E1,-2.573940158E-1,-1.353771053E-2,9.527585469E-3,2.579258108E-1
1.517950012E1,-2.464231253E-1,-8.434862830E-4,9.344892576E-3,2.466016933E-1
1.518952013E1,-2.320720553E-1,-2.048768103E-3,7.427158765E-3,2.321999117E-1
1.519954113E1,-2.284309864E-1,7.374295034E-3,6.081730127E-3,2.286308886E-1
1.520956113E1,-2.410291582E-1,4.676605575E-3,3.052039770E-3,2.410938421E-1
1.521958112E1,-2.267556936E-1,-4.738467280E-3,-3.008516040E-3,2.268251503E-1
1.522960213E1,-2.074899971E-1,-2.028141869E-3,-3.129814984E-3,2.075235120E-1
1.523962213E1,-1.982397735E-1,1.255692635E-2,-2.336725825E-3,1.986508104E-1
1.524964213E1,-1.914358437E-1,1.005499531E-2,-4.748987034E-3,1.917585410E-1
1.525966212E1,-1.845033616E-1,-3.763349028E-3,-3.711686004E-3,1.845790612E-1
1.526968313E1,-1.814178824E-1,-7.854245603E-3,-4.996464122E-3,1.816565493E-1
1.527970313E1,-1.691985130E-1,-1.236777194E-2,-5.263579078E-3,1.697315641E-1
1.528972313E1,-1.568445265E-1,-4.361045081E-3,-4.911595024E-3,1.569819989E-1
1.529974413E1,-1.414866149E-1,-3.916563466E-3,-3.302512690E-3,1.415793356E-1
1.530976413E1,-1.217577308E-1,2.088165469E-2,-4.669634625E-3,1.236235981E-1
1.531978413E1,-1.171896160E-1,4.519725218E-3,-2.083971864E-3,1.172952554E-1
1.532980413E1,-1.181352586E-1,-2.767798956E-3,-3.596359398E-3,1.182223914E-1
1.533982513E1,-1.071800813E-1,-1.515735686E-2,-7.499488536E-3,1.085060258E-1
1.534984513E1,-9.507987648E-2,-4.467192106E-3,-2.674512099E-3,9.522232791E-2
1.535986513E1,-7.687211037E-2,1.214662218E-3,-1.269162167E-3,7.689218120E-2
1.536988613E1,-6.169663370E-2,8.580546826E-3,5.143839517E-4,6.229257567E-2
1.537990613E1,-4.958777130E-2,9.865522385E-3,5.375534529E-4,5.056248172E-2
1.538992613E1,-3.699279577E-2,7.767288014E-3,5.408722209E-4,3.780330997E-2
1.539994613E1,-3.079828061E-2,-7.005532272E-3,6.838839618E-4,3.159239257E-2
1.540996713E1,-1.915151253E-2,-9.054308757E-3,1.828475157E-3,2.126274349E-2
1.541998713E1,-7.464230526E-3,-6.984766107E-3,3.058056347E-3,1.067021104E-2
1.543000713E1,7.675486617E-3,-7.684864104E-4,2.796677873E-3,8.205185756E-3
1.544002812E1,2.226375043E-2,4.530138802E-3,6.012977101E-3,2.350218361E-2
1.545004812E1,3.429275006E-2,8.606646210E-3,5.605016369E-3,3.579781103E-2
1.546006813E1,4.088380560E-2,3.299764823E-3,3.880885895E-3,4.119994276E-2
1.547008813E1,5.103975907E-2,-3.366341814E-3,6.722761318E-3,5.159054936E-2
1.548010913E1,6.192702800E-2,-3.574068192E-3,1.304293983E-3,6.204379053E-2
1.549012912E1,7.452581823E-2,-4.048395902E-3,1.272229827E-3,7.464653817E-2
1.550014913E1,8.541388810E-2,-5.511329509E-4,-9.387265309E-4,8.542082436E-2
1.551017013E1,9.868805110E-2,3.542658640E-3,-3.172425786E-3,9.880256144E-2
1.552019013E1,1.055584699E-1,2.560751280E-3,-1.647765981E-3,1.056023823E-1
1.553021012E1,1.159597710E-1,6.017931737E-4,-5.385690369E-3,1.160863312E-1
1.554023012E1,1.238880008E-1,3.681206377E-3,-5.790757947E-3,1.240778824E-1
1.555025113E1,1.305690557E-1,1.168284798E-3,-1.123941131E-2,1.310571156E-1
1.556027113E1,1.380440295E-1,-3.381459741E-3,-1.292545907E-2,1.386890617E-1
1.557029113E1,1.472080648E-1,-2.440899378E-3,-1.564649679E-2,1.480573713E-1
1.558031213E1,1.515980214E-1,-1.365515171E-3,-2.121702954E-2,1.530816353E-1
1.559033213E1,1.588371098E-1,8.091834607E-4,-2.211978659E-2,1.603719651E-1
1.560035213E1,1.646630317E-1,2.626790898E-3,-2.459199913E-2,1.665100011E-1
1.561037213E1,1.747775376E-1,-1.470504794E-4,-2.734141611E-2,1.769032569E-1
1.562039313E1,1.731791049E-1,5.959714763E-4,-2.875049412E-2,1.755504158E-1
1.563041313E1,1.780498177E-1,-1.030235551E-3,-3.916334361E-2,1.823089862E-1
1.564043313E1,1.800889969E-1,-3.046514699E-3,-3.584691137E-2,1.836472954E-1
1.565045413E1,1.895105392E-1,5.483106710E-3,-3.900406882E-2,1.935603945E-1
1.566047413E1,1.953777522E-1,3.750188043E-3,-4.112927243E-2,1.996951352E-1
1.567049413E1,1.962075233E-1,4.231694154E-3,-4.241660610E-2,2.007846307E-1
1.568051413E1,1.999956071E-1,-1.120194560E-3,-4.266507924E-2,2.044989161E-1
1.569053513E1,2.002720833E-1,-2.400419442E-3,-4.549440742E-2,2.053884380E-1
1.570055513E1,1.908535510E-1,9.452511556E-3,-4.488507658E-2,1.962883033E-1
1.571057513E1,2.114735544E-1,-3.412811086E-2,-4.555496201E-2,2.190001067E-1
1.572059613E1,2.040020674E-1,1.080740523E-2,-4.306437075E-2,2.087778330E-1
1.573061613E1,2.195963711E-1,-7.703851443E-4,-4.265699908E-2,2.237024346E-1
1.574063613E1,1.976481974E-1,4.848664626E-2,-4.116403311E-2,2.076300615E-1
1.575065613E1,2.188830674E-1,-8.001953363E-3,-4.309492931E-2,2.232285855E-1
1.576067712E1,1.908666193E-1,1.098558493E-2,-3.778964654E-2,1.948815200E-1
1.577069713E1,2.148519456E-1,-3.820883483E-2,-3.536286950E-2,2.210696862E-1
1.578071713E1,1.938422620E-1,2.120948210E-2,-3.189995885E-2,1.975911740E-1
1.579073813E1,2.202153802E-1,-3.050674498E-2,-2.814640850E-2,2.240930509E-1
1.580075812E1,1.905235350E-1,4.194215685E-2,-2.489788458E-2,1.966679094E-1
1.581077813E1,2.142034173E-1,-1.300782897E-2,-2.387454361E-2,2.159219800E-1
1.582079813E1,1.836521775E-1,3.673389181E-2,-1.927366666E-2,1.882789827E-1
1.583081913E1,2.049912810E-1,-1.449999772E-2,-1.506214309E-2,2.060547097E-1
1.584083912E1,1.857161224E-1,-1.508349553E-2,-1.032970659E-2,1.866137530E-1
1.585085912E1,1.810778379E-1,-3.024841892E-3,-6.402128376E-3,1.812162253E-1
1.586088013E1,1.727836877E-1,1.230990607E-2,-6.486816797E-3,1.733430567E-1
1.587090013E1,1.825641841E-1,-4.303306807E-3,-2.426082501E-3,1.826310095E-1
1.588092013E1,1.826542020E-1,5.446259398E-3,-2.556310967E-3,1.827532598E-1
1.589094012E1,1.790105104E-1,2.468059771E-3,3.079274436E-3,1.790540033E-1
1.590096113E1,1.599670500E-1,2.491797507E-2,2.157554496E-3,1.619105234E-1
1.591098113E1,1.613648385E-1,-3.247103887E-3,3.893563524E-3,1.614444630E-1
1.592100113E1,1.390805691E-1,9.147780016E-3,1.616560854E-3,1.393904583E-1
1.593102213E1,1.510634422E-1,-1.468991581E-2,3.286061343E-3,1.518115786E-1
1.594104213E1,1.273956597E-1,1.056537405E-2,2.968878951E-3,1.278674919E-1
1.595106213E1,1.231552139E-1,9.394879453E-3,-1.240252750E-4,1.235130999E-1
1.596108213E1,1.251826733E-1,-9.992133826E-3,1.984835253E-4,1.255809852E-1
1.597110313E1,1.178574190E-1,2.377190860E-3,-9.378522518E-4,1.178851212E-1
1.598112313E1,1.038214937E-1,1.302370988E-2,-4.093165509E-3,1.047152022E-1
1.599114313E1,1.071487144E-1,5.856638774E-3,-1.702305628E-3,1.073221555E-1
