"Time (s)","Gyroscope x (rad/s)","Gyroscope y (rad/s)","Gyroscope z (rad/s)","Absolute (rad/s)"
2.968616666E-2,1.766970754E-1,3.274505492E-3,2.057030648E-1,2.711942656E-1
3.970416667E-2,1.293745637E-1,-3.094525263E-2,2.030870318E-1,2.427750582E-1
4.972316667E-2,8.655266464E-2,-1.017193347E-1,2.008577287E-1,2.412094816E-1
5.974216667E-2,4.497752711E-2,-1.852714717E-1,1.925819665E-1,2.709913468E-1
6.976016666E-2,7.787548471E-3,-2.712607682E-1,1.769636720E-1,3.239740599E-1
7.977916666E-2,-2.607933991E-2,-3.389024138E-1,1.626901925E-1,3.768329561E-1
8.979816666E-2,-4.811877385E-2,-3.635363281E-1,1.426170468E-1,3.934637217E-1
9.981616666E-2,-6.867438555E-2,-3.333312869E-1,1.243134215E-1,3.623254681E-1
1.098351667E-1,-8.909804374E-2,-2.574560046E-1,1.096769348E-1,2.936853516E-1
1.198541667E-1,-1.072272509E-1,-1.562239230E-1,9.906264395E-2,2.138153523E-1
1.298721667E-1,-1.211436242E-1,-5.635013804E-2,9.122540802E-2,1.617813055E-1
1.398911667E-1,-1.295629442E-1,1.388674136E-2,8.596859127E-2,1.561089260E-1
1.499101667E-1,-1.377744079E-1,3.633670136E-2,8.218633384E-2,1.644893212E-1
1.599291667E-1,-1.462294012E-1,2.408216521E-2,8.091254532E-2,1.688485370E-1
1.699471667E-1,-1.565007418E-1,6.675409619E-3,7.706584781E-2,1.745743056E-1
1.799661667E-1,-1.672583222E-1,6.264217664E-3,7.513479143E-2,1.834661377E-1
1.899851667E-1,-1.807811558E-1,2.631989680E-2,6.999295205E-2,1.956363376E-1
2.000031667E-1,-1.931320876E-1,5.840353295E-2,6.767520308E-2,2.128166089E-1
2.100221667E-1,-2.115064859E-1,1.035541147E-1,6.574191153E-2,2.445004033E-1
2.200411667E-1,-2.336543947E-1,1.518060565E-1,7.052415609E-2,2.874249668E-1
2.300591667E-1,-2.505401969E-1,1.982488483E-1,7.115481049E-2,3.273163656E-1
2.400781667E-1,-2.667655051E-1,2.443247288E-1,7.163204998E-2,3.687676211E-1
2.500971667E-1,-2.778266966E-1,2.802332044E-1,7.019389421E-2,4.008060690E-1
2.601151667E-1,-2.942466736E-1,3.007541895E-1,7.443790138E-2,4.272881798E-1
2.701341667E-1,-3.075726032E-1,3.067974448E-1,7.282818109E-2,4.404878232E-1
2.801527083E-1,-3.149375916E-1,3.129573464E-1,6.814261526E-2,4.491897186E-1
2.901707083E-1,-3.204351664E-1,3.144418597E-1,5.796469375E-2,4.526723812E-1
3.001897083E-1,-3.241963685E-1,3.010107279E-1,5.242452025E-2,4.454874566E-1
3.102087083E-1,-3.326148391E-1,2.747110426E-1,4.327803105E-2,4.335571198E-1
3.202267083E-1,-3.463903069E-1,2.325580120E-1,2.952147089E-2,4.182594780E-1
3.302457083E-1,-3.655718267E-1,1.918946803E-1,2.182688192E-2,4.134522240E-1
3.402647083E-1,-4.003873169E-1,1.509379148E-1,1.581506245E-2,4.281849763E-1
3.502837083E-1,-4.376315176E-1,1.102272943E-1,1.462843176E-2,4.515367013E-1
3.603017083E-1,-4.778348505E-1,4.597586766E-2,1.553204283E-2,4.802927952E-1
3.703207083E-1,-5.191497803E-1,-2.696635574E-2,1.148415729E-2,5.199765039E-1
3.803397083E-1,-5.574691892E-1,-1.000051424E-1,5.444107577E-3,5.663943535E-1
3.903577083E-1,-5.913232565E-1,-1.785313189E-1,9.026465705E-4,6.176871702E-1
4.003767083E-1,-6.240242124E-1,-2.632576525E-1,-7.141164970E-3,6.773195741E-1
4.103957083E-1,-6.528300643E-1,-3.493717313E-1,-5.363229662E-3,7.404569290E-1
4.204137083E-1,-6.824241877E-1,-4.282992780E-1,-7.491362281E-3,8.057289643E-1
4.304327083E-1,-7.175024152E-1,-5.134963989E-1,-2.108048880E-3,8.823223398E-1
4.404517083E-1,-7.397398353E-1,-5.975499749E-1,-5.661585601E-5,9.509369062E-1
4.504697083E-1,-7.499101758E-1,-6.453738809E-1,-1.758494065E-3,9.893815291E-1
4.604887083E-1,-7.545046806E-1,-6.322783232E-1,-8.823860437E-3,9.844445396E-1
4.705077083E-1,-7.551761866E-1,-5.661585331E-1,-1.242450904E-2,9.439178597E-1
4.805257083E-1,-7.518834472E-1,-4.758630097E-1,-2.051226236E-2,8.900534113E-1
4.905447083E-1,-7.445442677E-1,-3.839543164E-1,-2.381471172E-2,8.380538312E-1
5.005637083E-1,-7.367566824E-1,-3.046829104E-1,-2.213052846E-2,7.975787392E-1
5.105827083E-1,-7.324733734E-1,-2.298576385E-1,-2.003838681E-2,7.679539789E-1
5.206007083E-1,-7.279867530E-1,-1.686387658E-1,-1.674086042E-2,7.474516722E-1
5.306197083E-1,-7.265539765E-1,-1.105897501E-1,-6.798765156E-3,7.349537379E-1
5.406387083E-1,-7.187527418E-1,-6.620124727E-2,-2.957954304E-3,7.218011212E-1
5.506567083E-1,-7.103753090E-1,-3.441515937E-2,5.113793071E-3,7.112268511E-1
5.606757083E-1,-7.042351365E-1,-7.397120818E-3,1.833745465E-2,7.045126735E-1
5.706947083E-1,-6.942322254E-1,1.332446374E-2,2.971892245E-2,6.949957831E-1
5.807127083E-1,-6.887112260E-1,3.902849555E-2,4.211274162E-2,6.911004697E-1
5.907317083E-1,-6.871620417E-1,6.932675093E-2,5.231701955E-2,6.926290063E-1
6.007507083E-1,-6.886606216E-1,9.915947914E-2,6.836549938E-2,6.991136500E-1
6.107687083E-1,-6.983273625E-1,1.174259260E-1,8.124292642E-2,7.127765193E-1
6.207877083E-1,-7.036046982E-1,1.128420904E-1,9.508497268E-2,7.189117197E-1
6.308067083E-1,-7.043367624E-1,9.321335703E-2,1.023891494E-1,7.178179036E-1
6.408247083E-1,-6.950990558E-1,7.369398326E-2,1.051756144E-1,7.068630775E-1
6.508437083E-1,-6.803812981E-1,4.933267459E-2,9.789814055E-2,6.891563462E-1
6.608627083E-1,-6.652300358E-1,9.065681137E-3,9.789334983E-2,6.724554223E-1
6.708817083E-1,-6.479144096E-1,-4.313350841E-2,8.576577902E-2,6.549880538E-1
6.808997083E-1,-6.359248757E-1,-1.081950665E-1,7.563698292E-2,6.494825426E-1
6.909187083E-1,-6.283823848E-1,-1.758230031E-1,7.088509202E-2,6.563557314E-1
7.009377083E-1,-6.236312985E-1,-2.392110229E-1,7.122997195E-2,6.717228736E-1
7.109557083E-1,-6.218504310E-1,-2.904223800E-1,7.325308770E-2,6.902239724E-1
7.209747083E-1,-6.205726266E-1,-3.248082995E-1,7.841295749E-2,7.048116119E-1
7.309937083E-1,-6.259205937E-1,-3.437377512E-1,8.473909646E-2,7.191056569E-1
7.410117083E-1,-6.184030175E-1,-3.584570587E-1,8.848696202E-2,7.202386392E-1
7.510307083E-1,-6.095259190E-1,-3.544101119E-1,8.686382324E-2,7.104038972E-1
7.610497083E-1,-5.946029425E-1,-3.273963332E-1,8.645955473E-2,6.842633066E-1
7.710677083E-1,-5.797708035E-1,-2.930030823E-1,8.101849258E-2,6.546365304E-1
7.810867083E-1,-5.723485351E-1,-2.574592233E-1,7.981048524E-2,6.326435100E-1
7.911057083E-1,-5.627195835E-1,-2.207729518E-1,8.220558614E-2,6.100424447E-1
8.011247083E-1,-5.653411746E-1,-1.824657768E-1,7.924202085E-2,5.993193650E-1
8.111427083E-1,-5.618032217E-1,-1.444857866E-1,7.761310786E-2,5.852544720E-1
8.211617083E-1,-5.658520460E-1,-1.127337217E-1,7.927891612E-2,5.823938328E-1
8.311807083E-1,-5.610634685E-1,-8.201476187E-2,7.557336241E-2,5.720401821E-1
8.411987083E-1,-5.481300950E-1,-5.801009387E-2,7.003132999E-2,5.556223171E-1
8.512177083E-1,-5.340939164E-1,-3.076674603E-2,5.749167874E-2,5.380596596E-1
8.612367083E-1,-5.105878115E-1,-4.143126309E-3,5.021485686E-2,5.130678421E-1
8.712547083E-1,-4.962311089E-1,1.983319223E-2,4.074162245E-2,4.982956439E-1
8.812737083E-1,-4.736847878E-1,4.139201343E-2,3.611864150E-2,4.768596577E-1
8.912927083E-1,-4.575182498E-1,4.594128579E-2,3.228414059E-2,4.609509912E-1
9.013107083E-1,-4.407323301E-1,3.478929773E-2,3.285885230E-2,4.433226660E-1
9.113297083E-1,-4.237284660E-1,1.099959202E-2,3.176505864E-2,4.250597874E-1
9.213487083E-1,-4.005701542E-1,-2.010905929E-2,2.988459729E-2,4.021864143E-1
9.313677083E-1,-3.779802322E-1,-3.940257430E-2,2.566435002E-2,3.808940505E-1
9.413857083E-1,-3.571167588E-1,-5.719248950E-2,2.249731869E-2,3.623665129E-1
9.514047083E-1,-3.334124386E-1,-7.474646717E-2,1.861330122E-2,3.421948912E-1
9.614237083E-1,-3.128853142E-1,-7.865199447E-2,1.576158963E-2,3.230043093E-1
9.714417083E-1,-2.904881537E-1,-8.465608209E-2,1.298934780E-2,3.028510242E-1
9.814607083E-1,-2.739605904E-1,-9.221173823E-2,1.048624236E-2,2.892531262E-1
9.914797083E-1,-2.517006993E-1,-1.008122712E-1,7.955872454E-3,2.712556948E-1
1.001497708E0,-2.417689860E-1,-1.189361513E-1,9.677339345E-3,2.696139862E-1
1.011516708E0,-2.303635329E-1,-1.444748789E-1,1.028717589E-2,2.721142663E-1
1.021535708E0,-2.217186391E-1,-1.841098964E-1,6.227186881E-3,2.882609699E-1
1.031553708E0,-2.082584500E-1,-2.326616496E-1,5.048342515E-3,3.122955507E-1
1.041572708E0,-1.983613372E-1,-2.863988876E-1,3.867497202E-3,3.484056550E-1
1.051591708E0,-1.915322393E-1,-3.393892348E-1,1.138685038E-3,3.897062329E-1
1.061610708E0,-1.775541008E-1,-3.805601001E-1,-2.733018482E-3,4.199510898E-1
1.071628708E0,-1.632613093E-1,-3.944957554E-1,-2.835338935E-3,4.269533877E-1
1.081647708E0,-1.475614458E-1,-3.845794797E-1,-3.205252113E-3,4.119296422E-1
1.091666708E0,-1.311435103E-1,-3.594963253E-1,-9.101316100E-4,3.826709507E-1
1.101684708E0,-1.201103032E-1,-3.210320175E-1,1.942912932E-3,3.427707923E-1
1.111703708E0,-1.058532372E-1,-2.735505700E-1,8.374007419E-3,2.934364432E-1
1.121722708E0,-9.266899526E-2,-2.282254547E-1,1.269871462E-2,2.466488561E-1
1.131740708E0,-7.240039855E-2,-1.766686291E-1,1.261483412E-2,1.913446008E-1
1.141759708E0,-5.478918180E-2,-1.333970577E-1,1.871507056E-2,1.454196799E-1
1.151778708E0,-3.492600471E-2,-8.815197647E-2,2.422390878E-2,9.786416360E-2
1.161796708E0,-1.838244870E-2,-5.227893218E-2,2.878324129E-2,6.244578568E-2
1.171815708E0,1.516265795E-3,-2.745795064E-2,2.795507200E-2,3.921382621E-2
1.181834708E0,1.554073859E-2,-7.949231192E-3,2.936575003E-2,3.416214436E-2
1.191853708E0,2.789044753E-2,2.122189850E-3,2.818426862E-2,3.970810687E-2
1.201871708E0,3.779447824E-2,3.731271718E-3,2.905352414E-2,4.781686145E-2
1.211890708E0,4.600107297E-2,1.090993057E-3,2.579497546E-2,5.275101648E-2
1.221909708E0,5.809315667E-2,-6.492092274E-3,2.274166048E-2,6.272276488E-2
1.231927708E0,6.818288565E-2,-1.386081986E-2,2.204049565E-2,7.298500990E-2
1.241946708E0,7.800222188E-2,-2.089023218E-2,2.156805061E-2,8.358187140E-2
1.251965708E0,8.329886198E-2,-2.263633534E-2,2.507846989E-2,8.988900788E-2
1.261983708E0,8.914689720E-2,-2.908091806E-2,2.615545131E-2,9.734976481E-2
1.272002708E0,9.136953205E-2,-3.361573815E-2,2.941495366E-2,1.017037302E-1
1.282021917E0,9.990841895E-2,-4.231521860E-2,2.908924967E-2,1.123318937E-1
1.292040917E0,1.036615372E-1,-5.111401528E-2,3.314743564E-2,1.202377201E-1
1.302058917E0,1.071135253E-1,-5.779162422E-2,3.767454252E-2,1.274070260E-1
1.312077917E0,1.108858511E-1,-4.882127792E-2,3.932325915E-2,1.273793855E-1
1.322096917E0,1.138640642E-1,-4.104298353E-2,4.401974380E-2,1.287916514E-1
1.332114917E0,1.147523597E-1,-2.993756160E-2,4.723734036E-2,1.276547217E-1
1.342133917E0,1.169018000E-1,-2.323864587E-2,4.939583316E-2,1.290194321E-1
1.352152917E0,1.150221154E-1,-2.548927441E-2,5.260585248E-2,1.290238965E-1
1.362170917E0,1.164378524E-1,-2.909972332E-2,5.573586375E-2,1.323293387E-1
1.372189917E0,1.111154482E-1,-3.373244032E-2,5.875508115E-2,1.301410001E-1
1.382208917E0,1.035643220E-1,-4.539149627E-2,5.883098021E-2,1.274638810E-1
1.392226917E0,9.890448302E-2,-6.415591389E-2,6.027008221E-2,1.324030244E-1
1.402245917E0,8.764570206E-2,-8.706682175E-2,6.113427877E-2,1.378397642E-1
1.412264917E0,7.561626285E-2,-1.123585328E-1,5.850176886E-2,1.475286958E-1
1.422283917E0,6.429570168E-2,-1.327974945E-1,6.314179301E-2,1.604867528E-1
1.432301917E0,5.159640312E-2,-1.519827247E-1,6.346271932E-2,1.725933201E-1
1.442320917E0,4.271076620E-2,-1.684266776E-1,6.776612252E-2,1.865046987E-1
1.452339917E0,3.617281467E-2,-1.778452545E-1,6.982303411E-2,1.944547844E-1
1.462357917E0,3.193333000E-2,-1.813273281E-1,7.108563930E-2,1.973638913E-1
1.472376917E0,2.895056829E-2,-1.897863299E-1,7.001515478E-2,2.043504546E-1
1.482395917E0,3.427715600E-2,-1.959118694E-1,7.167457044E-2,2.114086754E-1
1.492413917E0,3.909900039E-2,-1.929026544E-1,6.752616167E-2,2.080863965E-1
1.502432917E0,4.233554006E-2,-1.971178949E-1,6.679086387E-2,2.123882811E-1
1.512451917E0,5.050984770E-2,-2.076245993E-1,6.094495207E-2,2.222014990E-1
1.522470917E0,5.498955026E-2,-2.198365331E-1,5.934572592E-2,2.342517174E-1
1.532488917E0,6.355933845E-2,-2.403191626E-1,5.746606365E-2,2.551380761E-1
1.542507917E0,6.665658951E-2,-2.641832232E-1,5.024170876E-2,2.770561417E-1
1.552526917E0,7.664847374E-2,-2.718049884E-1,4.591020569E-2,2.861130672E-1
1.562544917E0,8.173164725E-2,-2.624000311E-1,3.919983655E-2,2.776156798E-1
1.572563917E0,9.171666950E-2,-2.425828576E-1,3.203420714E-2,2.613131851E-1
1.582582917E0,9.765791148E-2,-2.151941061E-1,2.365403995E-2,2.374975465E-1
1.592600917E0,1.039149836E-1,-1.856418848E-1,1.642315276E-2,2.133798330E-1
1.602619917E0,1.122397557E-1,-1.547982097E-1,1.550196670E-2,1.918347191E-1
1.612638917E0,1.193096116E-1,-1.295153797E-1,1.276257262E-2,1.765556577E-1
1.622657917E0,1.212960631E-1,-1.013956070E-1,1.072338969E-2,1.584575499E-1
1.632675917E0,1.270812750E-1,-7.283879817E-2,1.112408563E-2,1.468975366E-1
1.642694917E0,1.346334666E-1,-4.521889240E-2,9.769868106E-3,1.423599975E-1
1.652713917E0,1.411922574E-1,-1.552915759E-2,7.130628452E-3,1.422225515E-1
1.662731917E0,1.465840936E-1,1.689349674E-2,3.552405396E-3,1.475971080E-1
1.672750917E0,1.488465965E-1,4.427784681E-2,-1.390210120E-3,1.552989687E-1
1.682769917E0,1.544434875E-1,7.032596320E-2,-5.260582082E-3,1.697828191E-1
1.692787917E0,1.506447941E-1,1.018716171E-1,-7.638470735E-3,1.820165559E-1
1.702806917E0,1.558888257E-1,1.292345375E-1,-4.021632019E-3,2.025316399E-1
1.712825917E0,1.593035460E-1,1.397684813E-1,-4.034169018E-3,2.119649089E-1
1.722844917E0,1.622308940E-1,1.338658631E-1,-3.454398829E-3,2.103588960E-1
1.732862917E0,1.669392586E-1,1.206291839E-1,-5.027938634E-3,2.060228051E-1
1.742881917E0,1.745314002E-1,1.116527319E-1,-1.152578555E-2,2.075099659E-1
1.752900917E0,1.829042882E-1,1.267826259E-1,-1.555746235E-2,2.230915675E-1
1.762918917E0,1.894165128E-1,1.546078622E-1,-1.740622893E-2,2.451227921E-1
1.772937917E0,1.916158497E-1,1.795037687E-1,-2.210414782E-2,2.634897155E-1
1.782956917E0,1.961922199E-1,1.912515014E-1,-2.800065279E-2,2.754134356E-1
1.792975917E0,1.989947408E-1,1.935239583E-1,-2.634422854E-2,2.788269135E-1
1.802993917E0,1.982844770E-1,1.877803206E-1,-3.101195022E-2,2.748452723E-1
1.813012917E0,1.976438165E-1,1.657104045E-1,-3.299921378E-2,2.600230076E-1
1.823031917E0,1.978744417E-1,1.340992153E-1,-3.250040114E-2,2.412326062E-1
1.833049917E0,2.019096464E-1,1.012396365E-1,-3.341196477E-2,2.283272404E-1
1.843068917E0,1.996246427E-1,7.366606593E-2,-3.216161206E-2,2.152000384E-1
1.853087917E0,2.020957023E-1,5.316250026E-2,-3.185999021E-2,2.113858635E-1
1.863105917E0,2.076324075E-1,3.361063823E-2,-3.305707872E-2,2.129170311E-1
1.873124917E0,2.057253867E-1,1.940399036E-2,-3.260269761E-2,2.091946115E-1
1.883143917E0,2.094958872E-1,8.159858175E-3,-3.695057333E-2,2.128860138E-1
1.893162917E0,2.165801972E-1,1.025500242E-3,-3.922140598E-2,2.201053206E-1
1.903180917E0,2.218223661E-1,-8.538976312E-3,-4.269336909E-2,2.260548606E-1
1.913199917E0,2.273322046E-1,-3.338973969E-2,-4.566609859E-2,2.342652311E-1
1.923218917E0,2.297082841E-1,-6.895305961E-2,-5.050292984E-2,2.450937905E-1
1.933236917E0,2.348349094E-1,-1.017159075E-1,-5.606935173E-2,2.619872759E-1
1.943255917E0,2.391052991E-1,-1.038634777E-1,-5.556787923E-2,2.665459721E-1
1.953274917E0,2.427697182E-1,-9.612803161E-2,-6.138367951E-2,2.682269387E-1
1.963292917E0,2.400517017E-1,-7.515589893E-2,-6.089844927E-2,2.588085194E-1
1.973311917E0,2.404349893E-1,-4.918051884E-2,-6.641748548E-2,2.542419908E-1
1.983330917E0,2.347456664E-1,-2.232120559E-2,-7.112196088E-2,2.462967670E-1
1.993349917E0,2.305760235E-1,1.138533372E-2,-7.312152535E-2,2.421604548E-1
2.003367917E0,2.249146849E-1,5.078973249E-2,-7.549785823E-2,2.426234511E-1
2.013386917E0,2.146397531E-1,7.691336423E-2,-7.611038536E-2,2.403719617E-1
2.023405917E0,2.060028464E-1,9.982667118E-2,-7.815409452E-2,2.418896432E-1
2.033423917E0,1.918469965E-1,1.182151213E-1,-7.095120847E-2,2.362502042E-1
2.043442917E0,1.827102304E-1,1.230660677E-1,-6.891895086E-2,2.308205084E-1
2.053461917E0,1.722654253E-1,1.158564910E-1,-6.815216690E-2,2.185013069E-1
2.063480917E0,1.623986810E-1,1.020250991E-1,-6.683470309E-2,2.030993107E-1
2.073498917E0,1.613407880E-1,8.441302925E-2,-6.857658923E-2,1.945742994E-1
2.083517917E0,1.528000236E-1,6.891050190E-2,-6.828657538E-2,1.809960244E-1
2.093536917E0,1.497265995E-1,6.240443885E-2,-6.646660715E-2,1.753002523E-1
2.103554917E0,1.524486244E-1,5.704962090E-2,-6.693425775E-2,1.759984011E-1
2.113573917E0,1.548441499E-1,4.671264440E-2,-6.767730415E-2,1.753254101E-1
2.123592917E0,1.549520046E-1,2.943059430E-2,-6.483331323E-2,1.705275406E-1
2.133610917E0,1.549515873E-1,5.199161358E-3,-6.235918030E-2,1.671098233E-1
2.143629917E0,1.502833366E-1,-1.486722473E-2,-6.235438213E-2,1.633835506E-1
2.153648917E0,1.512469947E-1,-2.615711465E-2,-6.641159207E-2,1.672433784E-1
2.163667917E0,1.460114866E-1,-3.424167261E-2,-6.119446084E-2,1.619771849E-1
2.173685917E0,1.400335431E-1,-3.127111122E-2,-5.788416788E-2,1.547186236E-1
2.183704917E0,1.376814395E-1,-1.294589881E-2,-6.162324548E-2,1.513974883E-1
2.193723917E0,1.357367039E-1,1.441429183E-2,-6.351773441E-2,1.505547315E-1
2.203741917E0,1.340855509E-1,5.996553227E-2,-6.455556303E-2,1.604438243E-1
2.213760917E0,1.365709156E-1,1.053926274E-1,-6.983887404E-2,1.861093475E-1
2.223779917E0,1.338022947E-1,1.349127144E-1,-7.946673781E-2,2.059598431E-1
2.233798917E0,1.345888972E-1,1.452946365E-1,-8.577645570E-2,2.158293377E-1
2.243816917E0,1.300830841E-1,1.426732838E-1,-9.216804057E-2,2.139444376E-1
2.253835917E0,1.315587461E-1,1.395369619E-1,-9.819351137E-2,2.154535520E-1
2.263854917E0,1.273522824E-1,1.394128650E-1,-9.996718168E-2,2.136538981E-1
2.273872917E0,1.406784207E-1,1.394546777E-1,-1.016138643E-1,2.226283957E-1
2.283892167E0,1.581562161E-1,1.524951160E-1,-1.068198085E-1,2.442920805E-1
2.293911167E0,1.876318753E-1,1.749643683E-1,-1.106881946E-1,2.794103206E-1
2.303930167E0,2.252897620E-1,1.874633878E-1,-1.180622205E-1,3.159694393E-1
2.313948167E0,2.673597634E-1,1.926713735E-1,-1.284644604E-1,3.537041402E-1
2.323967167E0,3.130771816E-1,1.876118928E-1,-1.310666353E-1,3.878066617E-1
2.333986167E0,3.613641262E-1,1.956922561E-1,-1.352038980E-1,4.326194457E-1
2.344004167E0,4.147314727E-1,2.199456543E-1,-1.333601922E-1,4.880196985E-1
2.354023167E0,4.679189920E-1,2.599541843E-1,-1.306304485E-1,5.509888158E-1
2.364042167E0,5.181163549E-1,2.922484577E-1,-1.217296347E-1,6.071835161E-1
2.374060167E0,5.655094385E-1,3.153448999E-1,-1.128879264E-1,6.572571908E-1
2.384079167E0,6.095134020E-1,3.166479766E-1,-9.703705460E-2,6.936776761E-1
2.394098167E0,6.503798366E-1,2.911123633E-1,-8.525982499E-2,7.176416778E-1
2.404117167E0,6.825273633E-1,2.590769231E-1,-7.926318794E-2,7.343344652E-1
2.414135167E0,7.208664417E-1,2.307772338E-1,-6.867499650E-2,7.600150088E-1
2.424154167E0,7.547469139E-1,2.061773539E-1,-6.435960531E-2,7.850440523E-1
2.434173167E0,7.912744284E-1,1.674885005E-1,-6.006027758E-2,8.110332026E-1
2.444191167E0,8.200871944E-1,1.078438014E-1,-5.870073289E-2,8.292279952E-1
2.454210167E0,8.476074934E-1,2.406297252E-2,-5.695105717E-2,8.498593486E-1
2.464229167E0,8.721829057E-1,-5.540255830E-2,-5.463117734E-2,8.756466353E-1
2.474248167E0,8.938269019E-1,-1.053980589E-1,-4.872358218E-2,9.013374889E-1
2.484266167E0,9.164248705E-1,-1.295531988E-1,-4.405346140E-2,9.265847409E-1
2.494285167E0,9.408884048E-1,-1.472434998E-1,-4.169325903E-2,9.532523100E-1
2.504304167E0,9.558175206E-1,-1.672691405E-1,-4.834610224E-2,9.715469333E-1
2.514322167E0,9.704623818E-1,-1.692032665E-1,-5.472869053E-2,9.866216142E-1
2.524341167E0,9.888038635E-1,-1.480729580E-1,-6.282975525E-2,1.001801507E0
2.534360167E0,9.962410927E-1,-1.154155210E-1,-7.049123943E-2,1.005378572E0
2.544379167E0,1.000960469E0,-7.293704152E-2,-7.958007604E-2,1.006764452E0
2.554397167E0,1.005506277E0,-2.933517285E-2,-8.513018489E-2,1.009529878E0
2.564416167E0,1.012281179E0,1.208230760E-2,-8.957873285E-2,1.016308771E0
2.574435167E0,1.012288928E0,4.381082952E-2,-8.996514976E-2,1.017222685E0
2.584453167E0,1.005075812E0,7.011300325E-2,-9.823666513E-2,1.012296233E0
2.594472167E0,9.992974401E-1,9.529010952E-2,-9.862122685E-2,1.008663336E0
2.604491167E0,9.798033237E-1,1.176769063E-1,-9.118568152E-2,9.910485538E-1
2.614510167E0,9.646299481E-1,1.421577632E-1,-8.302965015E-2,9.785773803E-1
2.624528167E0,9.512294531E-1,1.768987030E-1,-7.266195863E-2,9.702630487E-1
2.634547167E0,9.361290932E-1,2.090936601E-1,-6.711859256E-2,9.615418573E-1
2.644566167E0,9.201112390E-1,2.239825875E-1,-6.571457535E-2,9.492582878E-1
2.654584167E0,8.977841735E-1,2.406901568E-1,-6.647811830E-2,9.318623900E-1
2.664603167E0,8.725094199E-1,2.454010248E-1,-6.493081897E-2,9.086860635E-1
2.674622167E0,8.469435573E-1,2.332360148E-1,-7.416904718E-2,8.815971162E-1
2.684641167E0,8.233500719E-1,2.081815302E-1,-7.769826800E-2,8.528082500E-1
2.694659167E0,8.156018257E-1,1.856795251E-1,-7.926340401E-2,8.402177762E-1
2.704678167E0,8.024473786E-1,1.603776217E-1,-8.040323853E-2,8.222575374E-1
2.714697167E0,7.946716547E-1,1.393459588E-1,-8.217009902E-2,8.109699502E-1
2.724715167E0,7.911187410E-1,1.318030953E-1,-8.221723884E-2,8.062261424E-1
2.734734167E0,7.886035442E-1,1.339784712E-1,-8.194959909E-2,8.040904909E-1
2.744753167E0,7.868434787E-1,1.337180138E-1,-7.945874333E-2,8.020703579E-1
2.754772167E0,7.892172933E-1,1.437670588E-1,-7.458243519E-2,8.056645970E-1
2.764790167E0,7.983580232E-1,1.483271867E-1,-7.635903358E-2,8.156023476E-1
2.774809167E0,8.152471781E-1,1.280859709E-1,-8.096502721E-2,8.292100536E-1
2.784828167E0,8.392385244E-1,9.085656703E-2,-8.226225525E-2,8.481410822E-1
2.794846167E0,8.707721233E-1,5.740985647E-2,-8.213897049E-2,8.765197048E-1
2.804865167E0,9.004059434E-1,3.875308484E-2,-8.414167166E-2,9.051588178E-1
2.814884167E0,9.396868348E-1,5.169334635E-2,-8.047436178E-2,9.445420438E-1
2.824903167E0,9.690692425E-1,8.150556684E-2,-7.493898273E-2,9.753738797E-1
2.834921167E0,1.000535250E0,9.613409638E-2,-7.386948913E-2,1.007853785E0
2.844940167E0,1.031139374E0,8.270750195E-2,-6.901534647E-2,1.036750721E0
2.854959167E0,1.051299095E0,5.589255318E-2,-6.775277108E-2,1.054961707E0
2.864977167E0,1.067668676E0,3.752126917E-2,-6.415111572E-2,1.070252126E0
2.874996167E0,1.078964829E0,4.805229977E-2,-6.096668914E-2,1.081753698E0
2.885015167E0,1.080370665E0,5.580236390E-2,-5.197079852E-2,1.083058466E0
2.895034167E0,1.077339172E0,4.373086616E-2,-4.494524002E-2,1.079162710E0
2.905052167E0,1.077689886E0,3.138098866E-2,-4.173053801E-2,1.078953982E0
2.915071167E0,1.074123025E0,4.765251279E-2,-3.820248693E-2,1.075858013E0
2.925090167E0,1.064871311E0,9.047801048E-2,-3.874124214E-2,1.069410148E0
2.935108167E0,1.057081342E0,1.641328484E-1,-3.732063621E-2,1.070398704E0
2.945127167E0,1.040929198E0,2.417735755E-1,-3.431339562E-2,1.069189163E0
2.955146167E0,1.018755555E0,2.897253633E-1,-3.110967949E-2,1.059609116E0
2.965165167E0,9.970124364E-1,2.941262424E-1,-2.965452895E-2,1.039915110E0
2.975183167E0,9.723553658E-1,2.607512176E-1,-3.477526456E-2,1.007311011E0
2.985202167E0,9.390637279E-1,2.210517228E-1,-3.614918888E-2,9.654073301E-1
2.995221167E0,9.073570967E-1,1.982100010E-1,-3.708616272E-2,9.294942113E-1
3.005239167E0,8.702480793E-1,2.023466974E-1,-3.811227903E-2,8.942753778E-1
3.015258167E0,8.371556401E-1,2.312939167E-1,-3.697921336E-2,8.693065650E-1
3.025277167E0,8.073216081E-1,2.730477750E-1,-3.513390943E-2,8.529699044E-1
3.035296167E0,7.837290764E-1,3.328572512E-1,-3.597885370E-2,8.522439162E-1
3.045314167E0,7.603036761E-1,3.934582770E-1,-3.243072331E-2,8.566929715E-1
3.055333167E0,7.366275787E-1,4.238693714E-1,-3.172021732E-2,8.504655231E-1
3.065352167E0,7.207646966E-1,4.066507220E-1,-3.120755777E-2,8.281548583E-1
3.075370167E0,7.048678398E-1,3.435966969E-1,-2.968047373E-2,7.847154212E-1
3.085389167E0,6.897964478E-1,2.647618055E-1,-3.696981445E-2,7.397869424E-1
3.095408167E0,6.766877174E-1,1.844745576E-1,-3.520115465E-2,7.022650857E-1
3.105427167E0,6.632422209E-1,1.404652894E-1,-3.876552731E-2,6.790607537E-1
3.115445167E0,6.524885893E-1,1.281399131E-1,-3.542368487E-2,6.658949121E-1
3.125464167E0,6.406124830E-1,1.339581311E-1,-3.286438808E-2,6.552932186E-1
3.135483167E0,6.332761049E-1,1.537965238E-1,-3.097173758E-2,6.524195309E-1
3.145501167E0,6.207621694E-1,1.680353880E-1,-2.956345864E-2,6.437822307E-1
3.155520167E0,6.076875329E-1,1.827340424E-1,-2.325543948E-2,6.349934514E-1
3.165539167E0,5.955030322E-1,2.034646124E-1,-1.583427563E-2,6.295017348E-1
3.175558167E0,5.764508843E-1,2.165256143E-1,-6.705268752E-3,6.158115981E-1
3.185576167E0,5.534886122E-1,1.897584498E-1,2.062123735E-3,5.851172237E-1
3.195595167E0,5.334523320E-1,1.226567179E-1,5.572957452E-3,5.474003278E-1
3.205614167E0,5.077434778E-1,3.040455282E-2,1.370625105E-2,5.088376337E-1
3.215633167E0,4.880883992E-1,-6.294006854E-2,1.614249311E-2,4.923944737E-1
3.225651167E0,4.660648406E-1,-1.205218732E-1,1.831802912E-2,4.817442348E-1
3.235670167E0,4.425928891E-1,-1.111379936E-1,2.506551333E-2,4.570212238E-1
3.245689167E0,4.217057228E-1,-6.076110154E-2,3.331146017E-2,4.273608329E-1
3.255707167E0,3.995074630E-1,7.151548751E-3,3.856217116E-2,4.014279495E-1
3.265726167E0,3.734149039E-1,5.743975192E-2,4.524617270E-2,3.805065462E-1
3.275745167E0,3.477140069E-1,6.912083179E-2,5.280168727E-2,3.584281492E-1
3.285764042E0,3.152873814E-1,2.084411494E-2,5.484619737E-2,3.207003514E-1
3.295782042E0,2.895350456E-1,-5.251306295E-2,5.566564202E-2,2.994775920E-1
3.305801042E0,2.660289109E-1,-8.969318867E-2,5.914586037E-2,2.869050057E-1
3.315820042E0,2.404442877E-1,-6.612958014E-2,5.709628016E-2,2.558252569E-1
3.325838042E0,2.196886837E-1,3.149358323E-3,6.277440488E-2,2.285030900E-1
3.335857042E0,1.987827271E-1,8.579493314E-2,6.196308136E-2,2.251993930E-1
3.345876042E0,1.772465408E-1,1.557979882E-1,6.182166561E-2,2.439493138E-1
3.355895042E0,1.590370685E-1,1.940952539E-1,6.439767033E-2,2.590614149E-1
3.365913042E0,1.356395930E-1,1.727513522E-1,7.292111218E-2,2.314273482E-1
3.375932042E0,1.105331481E-1,8.692131937E-2,7.358543575E-2,1.587063607E-1
3.385951042E0,8.774447441E-2,-3.098583082E-3,7.604379952E-2,1.161522856E-1
3.395969042E0,7.093474269E-2,-6.279134750E-2,7.502562553E-2,1.208442615E-1
3.405988042E0,5.152589455E-2,-7.904035598E-2,7.305169106E-2,1.193266326E-1
3.416007042E0,3.519531339E-2,-5.996694788E-2,7.012885809E-2,9.875627403E-2
3.426026042E0,2.363932505E-2,2.822398674E-3,7.723310590E-2,8.081915781E-2
3.436044042E0,2.128019929E-3,8.719619364E-2,8.520258218E-2,1.219310652E-1
3.446063042E0,-1.735779643E-2,1.355860978E-1,9.340804815E-2,1.655594953E-1
3.456082042E0,-3.198473528E-2,1.112430468E-1,9.975424409E-2,1.528036255E-1
3.466101042E0,-4.435325414E-2,5.028168857E-2,1.005191058E-1,1.208285976E-1
3.476119042E0,-5.213613436E-2,-2.170255966E-2,1.067980155E-1,1.208097418E-1
3.486138042E0,-6.083801389E-2,-8.698355407E-2,1.097706333E-1,1.526990326E-1
3.496157042E0,-7.350222766E-2,-1.254937202E-1,1.149915755E-1,1.854031114E-1
3.506175042E0,-8.767157048E-2,-1.418034583E-1,1.219296381E-1,2.065462701E-1
3.516194042E0,-1.078020558E-1,-1.375030130E-1,1.236496121E-1,2.140504342E-1
3.526213042E0,-1.279970706E-1,-1.389054358E-1,1.268257052E-1,2.275142406E-1
3.536232042E0,-1.448450536E-1,-1.461918503E-1,1.337414980E-1,2.454362135E-1
3.546250042E0,-1.620658487E-1,-1.405667216E-1,1.346757412E-1,2.533019893E-1
3.556269042E0,-1.768503189E-1,-1.146444008E-1,1.387550086E-1,2.523337598E-1
3.566288042E0,-2.008888125E-1,-9.473408014E-2,1.429343075E-1,2.641232235E-1
3.576307042E0,-2.194893211E-1,-6.897123158E-2,1.386597753E-1,2.686245077E-1
3.586325042E0,-2.402084470E-1,-2.829170786E-2,1.354237646E-1,2.772004956E-1
3.596344042E0,-2.588048577E-1,3.173375875E-2,1.333914250E-1,2.928826695E-1
3.606363042E0,-2.767077088E-1,1.068599373E-1,1.349288821E-1,3.258711487E-1
3.616381042E0,-3.001473844E-1,1.809334159E-1,1.376789659E-1,3.765379808E-1
3.626400042E0,-3.267867267E-1,2.412875742E-1,1.432063580E-1,4.307172148E-1
3.636419042E0,-3.556144834E-1,2.347976565E-1,1.477598846E-1,4.510261453E-1
3.646438042E0,-3.795698583E-1,1.803874075E-1,1.482344568E-1,4.456302821E-1
3.656456042E0,-3.930959702E-1,1.050796658E-1,1.470959038E-1,4.326700623E-1
3.666475042E0,-4.062983096E-1,1.542168017E-2,1.428103447E-1,4.309419208E-1
3.676494042E0,-4.114712477E-1,-6.463365257E-2,1.357156336E-1,4.380694350E-1
3.686512042E0,-4.217814207E-1,-1.178798303E-1,1.340809911E-1,4.580097526E-1
3.696531042E0,-4.298759699E-1,-1.491435021E-1,1.278616786E-1,4.726370093E-1
3.706550042E0,-4.487127960E-1,-1.745239645E-1,1.284228116E-1,4.982912863E-1
3.716569042E0,-4.701843858E-1,-2.199102193E-1,1.289708316E-1,5.348526307E-1
3.726587042E0,-4.909210801E-1,-2.801911533E-1,1.232205331E-1,5.785273451E-1
3.736606042E0,-5.127803683E-1,-3.159703314E-1,1.208856255E-1,6.143242555E-1
3.746625042E0,-5.297809243E-1,-3.242881894E-1,1.187156811E-1,6.323955017E-1
3.756644042E0,-5.516093969E-1,-3.154087961E-1,1.111760587E-1,6.450703461E-1
3.766662042E0,-5.663707852E-1,-2.720898092E-1,1.062761098E-1,6.372623809E-1
3.776681042E0,-5.891834497E-1,-2.099872977E-1,9.791229665E-2,6.331023776E-1
3.786700042E0,-6.229616404E-1,-1.768216193E-1,9.361582249E-2,6.543019277E-1
3.796718042E0,-6.562801003E-1,-1.947206557E-1,8.636858314E-2,6.899849535E-1
3.806737042E0,-6.892628074E-1,-2.310855836E-1,8.352352679E-2,7.317512857E-1
3.816756042E0,-7.209402919E-1,-2.358958274E-1,7.985443622E-2,7.627440441E-1
3.826775042E0,-7.396825552E-1,-1.859748662E-1,7.644186169E-2,7.665248147E-1
3.836793042E0,-7.561745644E-1,-9.968706965E-2,7.116691023E-2,7.660301644E-1
3.846812042E0,-7.636354566E-1,-3.884455655E-4,5.943834782E-2,7.659452843E-1
3.856831042E0,-7.744803429E-1,9.392409772E-2,4.881431162E-2,7.816804812E-1
3.866850042E0,-7.947800159E-1,1.551983804E-1,3.884316981E-2,8.107222723E-1
3.876868042E0,-8.254489303E-1,1.524497271E-1,3.622208908E-2,8.401897973E-1
3.886887042E0,-8.463294506E-1,1.082801372E-1,2.890771627E-2,8.537176249E-1
3.896906042E0,-8.630087376E-1,8.873686939E-2,1.970609464E-2,8.677826014E-1
3.906924042E0,-8.765757084E-1,1.026042178E-1,2.174394578E-2,8.828280678E-1
3.916943042E0,-8.714826703E-1,1.626374424E-1,1.435425691E-2,8.866448145E-1
3.926962042E0,-8.646724224E-1,2.571248114E-1,1.048441790E-2,9.021538060E-1
3.936981042E0,-8.566340804E-1,3.461517394E-1,2.035327256E-3,9.239302555E-1
3.946999042E0,-8.554929495E-1,3.942210078E-1,-2.725682571E-4,9.419545976E-1
3.957018042E0,-8.581877351E-1,3.639730811E-1,3.706932766E-4,9.321817043E-1
3.967037042E0,-8.565198183E-1,2.662204206E-1,5.413655192E-3,8.969553050E-1
3.977056042E0,-8.530117273E-1,1.222798154E-1,9.399506263E-3,8.617828676E-1
3.987074042E0,-8.496732116E-1,-1.857823506E-2,1.811496727E-2,8.500693321E-1
3.997093042E0,-8.354946971E-1,-1.027815863E-1,2.052996494E-2,8.420433022E-1
4.007112042E0,-8.148658276E-1,-1.210886911E-1,2.332868241E-2,8.241438075E-1
4.017130042E0,-7.856564522E-1,-1.237951145E-1,2.219646797E-2,7.956594588E-1
4.027149042E0,-7.656044364E-1,-1.465353221E-1,1.946832612E-2,7.797446822E-1
4.037168042E0,-7.553243637E-1,-1.827353984E-1,1.860146597E-2,7.773372079E-1
4.047187042E0,-7.519698739E-1,-2.372100949E-1,2.072320692E-2,7.887691498E-1
4.057205042E0,-7.490376830E-1,-2.948560119E-1,2.259511873E-2,8.052999799E-1
4.067224042E0,-7.414878607E-1,-3.341626525E-1,2.293600328E-2,8.136307431E-1
4.077243042E0,-7.330595255E-1,-3.291841149E-1,2.695775032E-2,8.040305776E-1
4.087262042E0,-7.243310213E-1,-2.872446477E-1,3.502020612E-2,7.799944429E-1
4.097280042E0,-7.137422562E-1,-2.174956799E-1,4.423117265E-2,7.474548653E-1
4.107299042E0,-7.060377002E-1,-1.410318017E-1,4.742856324E-2,7.215460289E-1
4.117318042E0,-6.942805052E-1,-5.449449271E-2,5.155519024E-2,6.983215644E-1
4.127336042E0,-6.870849133E-1,3.349528462E-2,5.872362107E-2,6.904028359E-1
4.137355042E0,-6.832355261E-1,1.027981788E-1,6.444052607E-2,6.939242257E-1
4.147374042E0,-6.786905527E-1,1.469685733E-1,6.868666410E-2,6.978097776E-1
4.157393042E0,-6.636576056E-1,1.874641925E-1,6.692977250E-2,6.928663908E-1
4.167411042E0,-6.460461617E-1,2.296497226E-1,6.648901850E-2,6.888653189E-1
4.177430042E0,-6.266778111E-1,2.785793543E-1,6.436437368E-2,6.888209551E-1
4.187449042E0,-6.090114713E-1,3.184202611E-1,5.996456370E-2,6.898421441E-1
4.197468042E0,-5.887082219E-1,3.416474164E-1,5.499276519E-2,6.828795881E-1
4.207486042E0,-5.761884451E-1,3.313247561E-1,4.851169512E-2,6.664252418E-1
4.217505042E0,-5.612154007E-1,2.742137909E-1,4.575122893E-2,6.262979355E-1
4.227524042E0,-5.531588197E-1,1.766813993E-1,4.625749588E-2,5.825296152E-1
4.237543042E0,-5.449621677E-1,4.996083304E-2,5.186763033E-2,5.497000093E-1
4.247561042E0,-5.331981778E-1,-7.585008442E-2,4.825585335E-2,5.407237368E-1
4.257580042E0,-5.124533176E-1,-1.777125150E-1,4.648593813E-2,5.443813766E-1
4.267599042E0,-4.934665561E-1,-2.380658686E-1,4.314313829E-2,5.495870542E-1
4.277617042E0,-4.708571434E-1,-2.762404084E-1,3.696673363E-2,5.471578859E-1
4.287636417E0,-4.502586722E-1,-3.013737202E-1,3.139433637E-2,5.427196288E-1
4.297655417E0,-4.357474148E-1,-3.108826280E-1,3.485391662E-2,5.364127267E-1
4.307674417E0,-4.253126085E-1,-3.267763853E-1,4.087186232E-2,5.379071761E-1
4.317692417E0,-4.213517904E-1,-3.555134535E-1,4.976725206E-2,5.535376467E-1
4.327711417E0,-4.243550301E-1,-3.786182404E-1,5.519903451E-2,5.713806935E-1
4.337730417E0,-4.187048376E-1,-3.811210096E-1,5.961278826E-2,5.693159487E-1
4.347749417E0,-4.123470783E-1,-3.578297794E-1,6.025274843E-2,5.492746651E-1
4.357767417E0,-4.061524272E-1,-3.055745959E-1,6.296291947E-2,5.121522791E-1
4.367786417E0,-3.929506540E-1,-2.273170799E-1,6.195277721E-2,4.581718214E-1
4.377805417E0,-3.841500878E-1,-1.522086114E-1,5.823441967E-2,4.172888676E-1
4.387824417E0,-3.747629821E-1,-1.013883203E-1,5.540800840E-2,3.921695190E-1
4.397842417E0,-3.736212254E-1,-8.410681039E-2,5.342187360E-2,3.866790299E-1
4.407861417E0,-3.860523403E-1,-9.741435945E-2,5.418513343E-2,4.018233387E-1
4.417880417E0,-4.092145562E-1,-1.204101667E-1,5.424976721E-2,4.299979052E-1
4.427898417E0,-4.282628000E-1,-1.374594569E-1,5.871375650E-2,4.535983172E-1
4.437917417E0,-4.524253607E-1,-1.144145131E-1,5.295906961E-2,4.696637636E-1
4.447936417E0,-4.743035138E-1,-3.589760140E-2,5.228102952E-2,4.785245730E-1
4.457955417E0,-4.985079169E-1,6.690237671E-2,5.057935417E-2,5.055139388E-1
4.467973417E0,-5.206078887E-1,1.644595563E-1,3.927956149E-2,5.473777520E-1
4.477992417E0,-5.435374379E-1,2.459257543E-1,3.100147285E-2,5.973889138E-1
4.488011417E0,-5.645434260E-1,2.841956317E-1,2.561789192E-2,6.325604425E-1
4.498030417E0,-5.937305093E-1,2.594256401E-1,2.513082884E-2,6.484204955E-1
4.508048417E0,-6.186063290E-1,1.893850416E-1,2.523256093E-2,6.474389287E-1
4.518067417E0,-6.545123458E-1,1.036590189E-1,2.808548696E-2,6.632649528E-1
4.528086417E0,-6.764682531E-1,5.850857869E-2,3.571597859E-2,6.799324837E-1
4.538105417E0,-6.808239818E-1,6.025417894E-2,4.336095974E-2,6.848591337E-1
4.548123417E0,-6.814232469E-1,1.016010791E-1,4.603317380E-2,6.904921967E-1
4.558142417E0,-6.869835258E-1,2.151583284E-1,4.757842049E-2,7.214590612E-1
4.568161417E0,-6.961386800E-1,3.233774602E-1,4.183398187E-2,7.687210974E-1
4.578179417E0,-7.064626813E-1,3.645168245E-1,3.605444729E-2,7.957775811E-1
4.588198417E0,-7.143461704E-1,3.400032222E-1,2.008267306E-2,7.913886252E-1
4.598217417E0,-7.080087066E-1,2.777839005E-1,-4.645953886E-3,7.605667682E-1
4.608236417E0,-6.992266774E-1,2.153777927E-1,-3.607391939E-2,7.325345505E-1
4.618254417E0,-6.620053053E-1,2.509766221E-1,-6.989363581E-2,7.114249148E-1
4.628273417E0,-6.629539728E-1,2.742720842E-1,-6.858522445E-2,7.207198341E-1
4.638292417E0,-6.394878030E-1,1.190425903E-1,-1.021424755E-1,6.584442830E-1
4.648311417E0,-6.318799853E-1,-2.190281264E-2,-1.268773675E-1,6.448642613E-1
4.658329417E0,-6.423346400E-1,-1.747538149E-1,-1.355891973E-1,6.793505104E-1
4.668348417E0,-6.310609579E-1,-3.066836298E-1,-1.420921087E-1,7.158791439E-1
4.678367417E0,-6.171466708E-1,-3.714559078E-1,-1.463172436E-1,7.350226123E-1
4.688386417E0,-6.095412374E-1,-4.029296637E-1,-1.447800696E-1,7.448852948E-1
4.698404417E0,-5.994919538E-1,-4.007040858E-1,-1.505544037E-1,7.366281257E-1
4.708423417E0,-5.805760622E-1,-3.987045884E-1,-1.454746872E-1,7.191639573E-1
4.718442417E0,-6.029839516E-1,-4.699078202E-1,-1.661160439E-1,7.823027198E-1
4.728460417E0,-6.262946129E-1,-5.031584501E-1,-1.907598823E-1,8.257134496E-1
4.738479417E0,-6.495587230E-1,-5.051019788E-1,-2.004913688E-1,8.469069208E-1
4.748498417E0,-6.645357609E-1,-4.288508892E-1,-1.989816278E-1,8.155455541E-1
4.758517417E0,-6.891997457E-1,-3.366231918E-1,-1.867485940E-1,7.894216238E-1
4.768535417E0,-7.053486109E-1,-2.202148288E-1,-1.831120402E-1,7.612760688E-1
4.778554417E0,-7.207878232E-1,-9.971866757E-2,-1.717321575E-1,7.476435198E-1
4.788573417E0,-7.324956059E-1,1.499326341E-2,-1.659523100E-1,7.512088790E-1
4.798592417E0,-7.432526946E-1,1.397073418E-1,-1.711332202E-1,7.753897655E-1
4.808610417E0,-7.519748211E-1,2.916380167E-1,-1.760954857E-1,8.255473847E-1
4.818629417E0,-7.626238465E-1,4.717258811E-1,-1.794970483E-1,9.145160625E-1
4.828648417E0,-7.743502855E-1,6.604691744E-1,-1.880921274E-1,1.034995915E0
4.838667417E0,-7.925920486E-1,8.242657185E-1,-1.883409619E-1,1.158916929E0
4.848685417E0,-7.941177487E-1,9.624278545E-1,-1.902709603E-1,1.262178043E0
4.858704417E0,-8.016771674E-1,1.071816921E0,-1.943928748E-1,1.352503746E0
4.868723417E0,-8.031096458E-1,1.171219707E0,-1.953787655E-1,1.433496971E0
4.878742417E0,-8.035098910E-1,1.267076254E0,-2.017341405E-1,1.513871541E0
4.888760417E0,-7.979846001E-1,1.322396755E0,-2.001040131E-1,1.557419088E0
4.898779417E0,-7.977376580E-1,1.323290229E0,-2.081457525E-1,1.559104568E0
4.908798417E0,-7.866791487E-1,1.257450461E0,-2.199512869E-1,1.499474679E0
4.918816417E0,-7.738201618E-1,1.130095720E0,-2.232024074E-1,1.387707928E0
4.928835417E0,-7.569383979E-1,9.434100389E-1,-2.307314277E-1,1.231346918E0
4.938854417E0,-7.298322320E-1,7.459971309E-1,-2.388999462E-1,1.070625981E0
4.948873417E0,-7.126647234E-1,5.521283150E-1,-2.387409508E-1,9.325952636E-1
4.958891417E0,-6.943696737E-1,3.277536929E-1,-2.301887721E-1,8.015975285E-1
4.968910417E0,-6.785877943E-1,1.232679412E-1,-2.187339813E-1,7.235474652E-1
4.978929417E0,-6.558588147E-1,-3.138748556E-2,-2.024296075E-1,6.871053086E-1
4.988948417E0,-6.260188818E-1,-1.309809238E-1,-1.838884205E-1,6.654852319E-1
4.998966417E0,-5.993356109E-1,-1.841479987E-1,-1.646007299E-1,6.482338005E-1
5.008985417E0,-5.673792958E-1,-2.169277817E-1,-1.426573545E-1,6.239615762E-1
5.019004417E0,-5.400451422E-1,-2.311171740E-1,-1.228936315E-1,6.001389409E-1
5.029023417E0,-5.085069537E-1,-2.278795689E-1,-9.820000082E-2,5.658194589E-1
5.039041417E0,-4.785894752E-1,-2.170614898E-1,-7.419877499E-2,5.307250082E-1
5.049060417E0,-4.505237341E-1,-2.069454789E-1,-5.387405679E-2,4.986987871E-1
5.059079417E0,-4.271984398E-1,-1.859981865E-1,-3.288206086E-2,4.670921347E-1
5.069098417E0,-4.062292278E-1,-1.440334320E-1,-1.116984244E-2,4.311526185E-1
5.079116417E0,-3.853377700E-1,-9.043367952E-2,5.896040238E-3,3.958512481E-1
5.089135417E0,-3.669348061E-1,-3.699122742E-2,1.520139165E-2,3.691078232E-1
5.099154417E0,-3.459643424E-1,1.465279958E-3,2.211306617E-2,3.466734211E-1
5.109173417E0,-3.276260793E-1,2.934245020E-2,2.710862458E-2,3.300525788E-1
5.119191417E0,-3.041373193E-1,5.525014549E-2,2.688595653E-2,3.102820366E-1
5.129210417E0,-2.821696997E-1,8.255127072E-2,2.927534468E-2,2.954513454E-1
5.139229417E0,-2.631993294E-1,1.103079244E-1,3.083739616E-2,2.870412343E-1
5.149248417E0,-2.448647767E-1,1.300105304E-1,3.221717849E-2,2.791047178E-1
5.159266417E0,-2.217194736E-1,1.454860568E-1,3.184897080E-2,2.670956283E-1
5.169285417E0,-1.972391605E-1,1.571277976E-1,2.971737646E-2,2.539203688E-1
5.179304417E0,-1.773361415E-1,1.608992219E-1,4.041923583E-2,2.428381793E-1
5.189323417E0,-1.552734524E-1,1.449197233E-1,4.664597288E-2,2.174567037E-1
5.199341417E0,-1.380355060E-1,1.057907492E-1,4.993345961E-2,1.809387574E-1
5.209360417E0,-1.190820560E-1,6.544332206E-2,5.155319348E-2,1.453309885E-1
5.219379417E0,-9.943573177E-2,3.772029281E-2,5.255622044E-2,1.186273221E-1
5.229397417E0,-8.069452643E-2,1.424852107E-2,5.088668317E-2,9.645766674E-2
5.239416417E0,-6.357597560E-2,-9.325788356E-3,4.727480188E-2,7.977331568E-2
5.249435417E0,-4.745133594E-2,-3.881443664E-2,4.504200444E-2,7.607214955E-2
5.259454417E0,-3.867533803E-2,-7.808642089E-2,4.402273148E-2,9.762823253E-2
5.269472417E0,-2.719018981E-2,-1.189869791E-1,4.738630354E-2,1.309300171E-1
5.279491417E0,-2.475420013E-2,-1.663741022E-1,5.262908340E-2,1.762467950E-1
5.289510167E0,-1.715433598E-2,-2.159408480E-1,5.810267851E-2,2.242780469E-1
5.299529167E0,-1.921129972E-2,-2.547854781E-1,5.693829060E-2,2.617760165E-1
5.309547167E0,-2.137005702E-2,-2.786958814E-1,5.889358371E-2,2.856510596E-1
5.319566167E0,-2.451222017E-2,-2.925263345E-1,6.211243942E-2,3.000507631E-1
5.329585167E0,-2.904731780E-2,-3.002790809E-1,6.646671146E-2,3.089160028E-1
5.339604167E0,-3.535579145E-2,-2.981004119E-1,6.317083538E-2,3.067644732E-1
5.349622167E0,-4.120542482E-2,-2.928332090E-1,6.712961942E-2,3.032417536E-1
5.359641167E0,-5.360139534E-2,-2.810057700E-1,6.485070288E-2,2.933308132E-1
5.369660167E0,-5.836978927E-2,-2.584770322E-1,6.602250040E-2,2.730867610E-1
5.379679167E0,-6.770341098E-2,-2.290376127E-1,6.466822326E-2,2.474347570E-1
5.389697167E0,-7.470725477E-2,-1.930465847E-1,6.630287319E-2,2.173573757E-1
5.399716167E0,-8.302803338E-2,-1.640515178E-1,6.676591933E-2,1.956124812E-1
5.409735167E0,-9.233045578E-2,-1.441646367E-1,7.068555802E-2,1.852155600E-1
5.419754167E0,-9.650328010E-2,-1.411304325E-1,6.893870980E-2,1.843454034E-1
5.429772167E0,-1.044855714E-1,-1.348850578E-1,7.271480560E-2,1.854687478E-1
5.439791167E0,-1.120949835E-1,-1.316010356E-1,7.360922545E-2,1.878894248E-1
5.449810167E0,-1.186580732E-1,-1.233779937E-1,7.553655654E-2,1.871032844E-1
5.459829167E0,-1.221463680E-1,-9.760264307E-2,7.474168390E-2,1.732983857E-1
5.469847167E0,-1.308224052E-1,-7.533462346E-2,7.447457314E-2,1.683338030E-1
5.479866167E0,-1.313162744E-1,-4.326976836E-2,7.429315150E-2,1.569576667E-1
5.489885167E0,-1.366031915E-1,-3.272045404E-2,7.822796702E-2,1.607814506E-1
5.499904167E0,-1.455592364E-1,-3.691880777E-2,7.247698307E-2,1.667435239E-1
5.509922167E0,-1.517697275E-1,-5.758174509E-2,7.532576472E-2,1.789516090E-1
5.519941167E0,-1.550792605E-1,-8.252330124E-2,7.446966320E-2,1.908019995E-1
5.529960167E0,-1.585970372E-1,-9.945674241E-2,7.497593015E-2,2.016582602E-1
5.539979167E0,-1.562094986E-1,-1.120720506E-1,7.569123805E-2,2.066173166E-1
5.549997167E0,-1.569708884E-1,-1.104501858E-1,7.612986118E-2,2.064821036E-1
5.560016167E0,-1.587918699E-1,-1.167390049E-1,8.097025752E-2,2.130704949E-1
5.570035167E0,-1.596912146E-1,-1.303277910E-1,7.804370672E-2,2.204028976E-1
5.580054167E0,-1.622104198E-1,-1.439645737E-1,8.037975430E-2,2.312983434E-1
5.590072167E0,-1.672997177E-1,-1.565205753E-1,8.071877062E-2,2.429061670E-1
5.600091167E0,-1.709634215E-1,-1.744278371E-1,8.476819098E-2,2.585327988E-1
5.610110167E0,-1.737203300E-1,-1.908571422E-1,8.564277738E-2,2.719188980E-1
5.620129167E0,-1.776870191E-1,-1.982024312E-1,8.935905993E-2,2.807880376E-1
5.630147167E0,-1.825912297E-1,-1.964545995E-1,8.923681825E-2,2.826608861E-1
5.640166167E0,-1.860789657E-1,-1.865997165E-1,9.116880596E-2,2.788486809E-1
5.650185167E0,-1.868608743E-1,-1.648669988E-1,8.739776909E-2,2.640766625E-1
5.660204167E0,-1.847618520E-1,-1.347153783E-1,9.202554077E-2,2.464830121E-1
5.670222167E0,-1.874084920E-1,-1.061170250E-1,9.214512259E-2,2.342509114E-1
5.680241167E0,-1.881784797E-1,-8.808083087E-2,9.227213264E-2,2.273400964E-1
5.690260167E0,-1.930978745E-1,-7.518260926E-2,8.836819977E-2,2.252735062E-1
5.700279167E0,-2.005624473E-1,-6.571587175E-2,8.111428469E-2,2.261048391E-1
5.710297167E0,-2.078001201E-1,-5.011214316E-2,7.960400730E-2,2.280984761E-1
5.720316167E0,-2.141944170E-1,-3.123209998E-2,7.492115349E-2,2.290586641E-1
5.730335167E0,-2.295089066E-1,-1.467203163E-2,7.289502025E-2,2.412535817E-1
5.740353167E0,-2.449142635E-1,5.462366156E-3,6.986985356E-2,2.547442450E-1
5.750372167E0,-2.608082891E-1,2.970378846E-2,6.526818126E-2,2.704869945E-1
5.760391167E0,-2.864603698E-1,4.929746315E-2,6.314431131E-2,2.974508151E-1
5.770410167E0,-3.054148853E-1,6.815983355E-2,6.355816126E-2,3.193174830E-1
5.780428167E0,-3.232793510E-1,7.744786888E-2,6.257694960E-2,3.382655551E-1
5.790447167E0,-3.457615077E-1,7.423502952E-2,6.622974575E-2,3.597891592E-1
5.800466167E0,-3.560616374E-1,7.290154696E-2,6.036495417E-2,3.684269980E-1
5.810485167E0,-3.736180067E-1,6.710144877E-2,6.335727870E-2,3.848469360E-1
5.820503167E0,-3.858636618E-1,6.460451335E-2,6.618110836E-2,3.967927012E-1
5.830522167E0,-4.013174474E-1,6.227531284E-2,6.707593054E-2,4.116225075E-1
5.840541167E0,-4.115889370E-1,6.438567489E-2,7.842262834E-2,4.239116380E-1
5.850560167E0,-4.265924096E-1,5.622574687E-2,8.367890865E-2,4.383429916E-1
5.860579167E0,-4.441891313E-1,2.861575596E-2,9.058612585E-2,4.542341819E-1
5.870597167E0,-4.624163508E-1,-1.573759317E-2,9.592043608E-2,4.725222571E-1
5.880616167E0,-4.806784093E-1,-7.717726380E-2,9.946407378E-2,4.968915025E-1
5.890635167E0,-5.005344152E-1,-1.420835555E-1,1.017871499E-1,5.301726714E-1
5.900653167E0,-5.128796697E-1,-2.241640836E-1,1.082165241E-1,5.700928942E-1
5.910672167E0,-5.216702223E-1,-3.095857799E-1,1.078612581E-1,6.161308521E-1
5.920691167E0,-5.262315273E-1,-3.954412639E-1,1.119894534E-1,6.677088072E-1
5.930710167E0,-5.311695933E-1,-4.776511788E-1,1.113351136E-1,7.229711564E-1
5.940728167E0,-5.397823453E-1,-5.706694126E-1,9.989491850E-2,7.918380854E-1
5.950747167E0,-5.487856865E-1,-6.356100440E-1,1.008840129E-1,8.457797833E-1
5.960766167E0,-5.585640669E-1,-7.130594850E-1,1.081099957E-1,9.122145675E-1
5.970785167E0,-5.750967264E-1,-8.092318177E-1,1.061195508E-1,9.984256300E-1
5.980804167E0,-5.868879557E-1,-8.945469260E-1,1.111501306E-1,1.075642146E0
5.990822167E0,-5.898808241E-1,-9.595938325E-1,1.062776148E-1,1.131403837E0
6.000841167E0,-5.960282683E-1,-9.868246317E-1,1.008332074E-1,1.157255324E0
6.010860167E0,-6.109020710E-1,-9.897717237E-1,9.968165308E-2,1.167384186E0
6.020879167E0,-6.221555471E-1,-9.556764960E-1,8.960015327E-2,1.143863312E0
6.030897167E0,-6.332119107E-1,-8.857764602E-1,8.244343847E-2,1.091949716E0
6.040916167E0,-6.421619058E-1,-7.849008441E-1,7.797481865E-2,1.017114212E0
6.050935167E0,-6.634150147E-1,-6.849936843E-1,6.520762295E-2,9.558179028E-1
6.060954167E0,-6.767085195E-1,-5.887352228E-1,5.403416604E-2,8.985896027E-1
6.070972167E0,-6.872844696E-1,-4.525968134E-1,4.005416855E-2,8.238981455E-1
6.080991167E0,-6.982017756E-1,-2.993179560E-1,2.972390130E-2,7.602371133E-1
6.091010167E0,-7.022431493E-1,-1.353375465E-1,2.220553160E-2,7.155101521E-1
6.101029167E0,-7.056150436E-1,5.687169358E-2,1.479166374E-2,7.080577467E-1
6.111047167E0,-6.920022964E-1,2.580788434E-1,8.869593032E-3,7.386139298E-1
6.121066167E0,-6.613636017E-1,4.605500400E-1,-9.024878964E-3,8.059712163E-1
6.131085167E0,-6.156869531E-1,6.450554132E-1,-3.732016683E-2,8.925019357E-1
6.141104167E0,-5.698090792E-1,7.752625346E-1,-6.119868159E-2,9.640848837E-1
6.151122167E0,-5.351619124E-1,8.480805159E-1,-7.866182923E-2,1.005895878E0
6.161141167E0,-5.039393306E-1,8.709585071E-1,-9.519422799E-2,1.010735134E0
6.171160167E0,-4.741830528E-1,8.766182661E-1,-1.209829450E-1,1.003965151E0
6.181179167E0,-4.217778742E-1,9.126185179E-1,-1.384696066E-1,1.014861058E0
6.191197167E0,-3.660437763E-1,9.790740013E-1,-1.466439068E-1,1.055499115E0
6.201216167E0,-2.898074090E-1,1.078375578E0,-1.622669250E-1,1.128367306E0
6.211235167E0,-1.954934299E-1,1.187584162E0,-1.696284413E-1,1.215461900E0
6.221254167E0,-9.883469343E-2,1.204954147E0,-1.681729257E-1,1.220641195E0
6.231272167E0,-3.761442378E-3,1.091661692E0,-1.499768794E-1,1.101922167E0
6.241291167E0,1.168198362E-1,8.703150749E-1,-1.267799586E-1,8.872250908E-1
6.251310167E0,2.694953978E-1,5.826217532E-1,-9.589101374E-2,6.490538986E-1
6.261329167E0,4.600724876E-1,3.293685019E-1,-5.906045809E-2,5.688922935E-1
6.271347167E0,6.935070753E-1,9.993957728E-2,-1.245220937E-2,7.007817350E-1
6.281366167E0,9.471942782E-1,-1.190733984E-1,3.500854596E-2,9.552910935E-1
6.291385667E0,1.190510511E0,-3.049617708E-1,7.982873917E-2,1.231539519E0
6.301404667E0,1.457946539E0,-3.940721750E-1,1.223154590E-1,1.515210237E0
6.311422667E0,1.732160568E0,-3.982466757E-1,1.757600456E-1,1.786021344E0
6.321441667E0,2.021772146E0,-3.525446057E-1,2.341566384E-1,2.065594259E0
6.331460667E0,2.312574387E0,-3.212096095E-1,2.862110436E-1,2.352252680E0
6.341479667E0,2.617388248E0,-2.384807616E-1,3.388290405E-1,2.649981025E0
6.351497667E0,2.906861782E0,-1.617271304E-1,3.696434200E-1,2.934729518E0
6.361516667E0,3.195652723E0,-1.732706092E-2,4.007961154E-1,3.220735022E0
6.371535667E0,3.494169235E0,2.085356414E-1,4.253951907E-1,3.526140500E0
6.381554667E0,3.790896654E0,4.818701148E-1,4.420317113E-1,3.846880331E0
6.391573667E0,4.131242752E0,8.523547053E-1,4.842071235E-1,4.245954752E0
6.401591667E0,4.509095192E0,1.203134298E0,5.169351101E-1,4.695390665E0
6.411610667E0,4.923644543E0,1.471545219E0,5.663381219E-1,5.169957426E0
6.421629667E0,5.392503738E0,1.587530017E0,6.125086546E-1,5.654601222E0
6.431648667E0,5.910326004E0,1.399405122E0,6.537639499E-1,6.108821120E0
6.441666667E0,6.468335629E0,8.262642026E-1,6.460299492E-1,6.552818709E0
6.451685667E0,7.100158691E0,1.613514498E-2,5.763939023E-1,7.123534496E0
6.461704667E0,7.868776321E0,-8.726838827E-1,4.855437279E-1,7.931895780E0
6.471723667E0,8.725212097E0,-1.860935569E0,2.679158151E-1,8.925479607E0
6.481741667E0,9.684227943E0,-2.835894346E0,1.135531114E-3,1.009091517E1
6.491760667E0,1.059834862E1,-3.717022419E0,-2.771416306E-1,1.123468097E1
6.501779667E0,1.129403877E1,-4.587417603E0,-5.715898275E-1,1.220354158E1
6.511798667E0,1.172861195E1,-5.339582443E0,-9.110475183E-1,1.291903582E1
6.521816667E0,1.230565071E1,-6.070850849E0,-1.404082775E0,1.379332150E1
6.531835667E0,1.251163483E1,-6.296218395E0,-2.086093426E0,1.416104367E1
6.541854667E0,1.195109463E1,-6.619788170E0,-3.247828245E0,1.404274355E1
6.551873667E0,1.154732418E1,-6.999292850E0,-3.962964296E0,1.407252224E1
6.561891667E0,1.122106743E1,-7.422739029E0,-4.673594952E0,1.424260856E1
6.571910667E0,1.081352329E1,-7.903567314E0,-5.393562317E0,1.443915429E1
6.581929667E0,1.028907108E1,-8.454035759E0,-6.124508381E0,1.465760237E1
6.591948667E0,9.725399971E0,-9.052187920E0,-6.863063812E0,1.495416850E1
6.601966667E0,9.051881790E0,-9.678544998E0,-7.633941174E0,1.529339253E1
6.611985667E0,8.208621025E0,-1.032465744E1,-8.360365868E0,1.561652099E1
6.622004667E0,7.293628216E0,-1.092670250E1,-9.053279877E0,1.595467695E1
6.632023667E0,6.226891994E0,-1.152198601E1,-9.703898430E0,1.630018375E1
6.642041667E0,5.019382477E0,-1.206812286E1,-1.025611591E1,1.661390091E1
6.652060667E0,3.742644072E0,-1.249626064E1,-1.068295002E1,1.686088182E1
6.662079667E0,2.370502710E0,-1.280879116E1,-1.100742626E1,1.705426184E1
6.672098667E0,9.257342815E-1,-1.299682808E1,-1.116874409E1,1.716145007E1
6.682117667E0,-5.229548216E-1,-1.301231670E1,-1.115466118E1,1.714702113E1
6.692135667E0,-1.953762889E0,-1.288039112E1,-1.097821522E1,1.703651591E1
6.702154667E0,-3.342362165E0,-1.261092663E1,-1.066250229E1,1.684920800E1
6.712173667E0,-4.620467663E0,-1.220600510E1,-1.020755291E1,1.656892930E1
6.722192667E0,-5.795008659E0,-1.171094227E1,-9.637953758E0,1.623633108E1
6.732210667E0,-6.855325222E0,-1.114256859E1,-8.987874031E0,1.587243517E1
6.742229667E0,-7.775075436E0,-1.053216457E1,-8.278767586E0,1.548923114E1
6.752248667E0,-8.560907364E0,-9.908543587E0,-7.538893700E0,1.510970844E1
6.762267667E0,-9.229507446E0,-9.291252136E0,-6.785494328E0,1.474971550E1
6.772285667E0,-9.790768623E0,-8.696857452E0,-6.035988331E0,1.441969608E1
6.782304667E0,-1.024268818E1,-8.141141891E0,-5.297987938E0,1.411593173E1
6.792323667E0,-1.061659431E1,-7.635683060E0,-4.582048416E0,1.385679971E1
6.802342667E0,-1.091377258E1,-7.181342125E0,-3.894841433E0,1.363275088E1
6.812360667E0,-1.113468456E1,-6.791975498E0,-3.234344482E0,1.343774965E1
6.822379667E0,-1.130262470E1,-6.459547520E0,-2.595375061E0,1.327445106E1
6.832398667E0,-1.142811966E1,-6.193063259E0,-1.983384013E0,1.314875521E1
6.842417667E0,-1.150446606E1,-5.991392612E0,-1.387964964E0,1.304515126E1
6.852435667E0,-1.154288578E1,-5.855860233E0,-8.104376793E-1,1.296865916E1
6.862454667E0,-1.154957104E1,-5.782734394E0,-2.383152246E-1,1.291856812E1
6.872473667E0,-1.152162361E1,-5.771759510E0,3.207073212E-1,1.289045661E1
6.882492667E0,-1.146334648E1,-5.821670055E0,8.830098510E-1,1.288719757E1
6.892511667E0,-1.137185287E1,-5.927620411E0,1.448523283E0,1.290557791E1
6.902529667E0,-1.125025082E1,-6.084871292E0,2.019258261E0,1.294879168E1
6.912548667E0,-1.108217239E1,-6.298191547E0,2.595718861E0,1.300844027E1
6.922567667E0,-1.087919140E1,-6.572783470E0,3.190293312E0,1.310481818E1
6.932586667E0,-1.063050175E1,-6.897797585E0,3.797551870E0,1.322908081E1
6.942604667E0,-1.032396603E1,-7.277192593E0,4.424745560E0,1.338357874E1
6.952623667E0,-9.950789452E0,-7.711742878E0,5.063322067E0,1.356931904E1
6.962642667E0,-9.507717133E0,-8.196004868E0,5.714213371E0,1.379215050E1
6.972661667E0,-8.981881142E0,-8.720762253E0,6.376465321E0,1.404938408E1
6.982679667E0,-8.365580559E0,-9.269404411E0,7.036067486E0,1.433216808E1
6.992698667E0,-7.648725033E0,-9.826386452E0,7.682841301E0,1.463170926E1
7.002717667E0,-6.827593327E0,-1.037401581E1,8.301755905E0,1.493838632E1
7.012736667E0,-5.904472351E0,-1.089371681E1,8.876549721E0,1.524234216E1
7.022754667E0,-4.875652790E0,-1.136521721E1,9.386970520E0,1.552595787E1
7.032773667E0,-3.754459858E0,-1.176058197E1,9.809009552E0,1.576781296E1
7.042792667E0,-2.549502850E0,-1.206188011E1,1.012923527E1,1.595588680E1
7.052811667E0,-1.296566486E0,-1.225642204E1,1.032821178E1,1.608020288E1
7.062829667E0,-1.476235874E-2,-1.232044983E1,1.039487076E1,1.611977171E1
7.072848667E0,1.266912222E0,-1.225879860E1,1.033152580E1,1.608177960E1
7.082867667E0,2.514311314E0,-1.206740093E1,1.013389015E1,1.595743263E1
7.092886667E0,3.699024439E0,-1.176525593E1,9.810255051E0,1.575896992E1
7.102905667E0,4.801352024E0,-1.136439991E1,9.379798889E0,1.549784481E1
7.112923667E0,5.813624382E0,-1.089075470E1,8.860957146E0,1.519616162E1
7.122942667E0,6.713795185E0,-1.036342239E1,8.282428741E0,1.486856400E1
7.132961667E0,7.494992733E0,-9.805597305E0,7.658785820E0,1.452520757E1
7.142980667E0,8.172152519E0,-9.235297203E0,7.009627819E0,1.418483956E1
7.152998667E0,8.750517845E0,-8.668278694E0,6.337349892E0,1.385180933E1
7.163017667E0,9.230806351E0,-8.127917290E0,5.674648762E0,1.354520077E1
7.173036667E0,9.632229805E0,-7.620311260E0,5.027244091E0,1.327110311E1
7.183055667E0,9.953664780E0,-7.147656441E0,4.392709255E0,1.301769295E1
7.193073667E0,1.021516609E1,-6.727776051E0,3.779027700E0,1.280209511E1
7.203092667E0,1.042355728E1,-6.354220867E0,3.191098452E0,1.261783573E1
7.213111667E0,1.058101463E1,-6.038734436E0,2.622444391E0,1.246199819E1
7.223130667E0,1.070012665E1,-5.772751331E0,2.074119329E0,1.233366690E1
7.233149667E0,1.077686691E1,-5.561923504E0,1.536879301E0,1.222447756E1
7.243167667E0,1.083005619E1,-5.401584148E0,1.016030669E0,1.214493914E1
7.253186667E0,1.085193539E1,-5.286508083E0,5.094531775E-1,1.208185465E1
7.263205667E0,1.084927654E1,-5.226157665E0,1.552487630E-2,1.204241531E1
7.273224667E0,1.081710815E1,-5.214396477E0,-4.811171293E-1,1.201795462E1
7.283241583E0,1.076109505E1,-5.242607117E0,-9.699548483E-1,1.200945080E1
7.293260583E0,1.067379951E1,-5.319794655E0,-1.464099884E0,1.201556489E1
7.303279583E0,1.055920315E1,-5.444321632E0,-1.960529804E0,1.204080920E1
7.313298583E0,1.041173077E1,-5.605760574E0,-2.463951588E0,1.207889675E1
7.323316583E0,1.022636318E1,-5.800209999E0,-2.973000526E0,1.212681624E1
7.333335583E0,1.000253963E1,-6.044756413E0,-3.485506296E0,1.219584492E1
7.343354583E0,9.736677170E0,-6.327853203E0,-4.006147861E0,1.228388494E1
7.353373583E0,9.417376518E0,-6.638016224E0,-4.532104969E0,1.238104258E1
7.363391583E0,9.053063393E0,-6.968894958E0,-5.068187237E0,1.249839892E1
7.373410583E0,8.632643700E0,-7.329454899E0,-5.594754219E0,1.263110134E1
7.383429583E0,8.151683807E0,-7.716538429E0,-6.125386715E0,1.278730920E1
7.393448583E0,7.607624054E0,-8.118555069E0,-6.644696236E0,1.295912297E1
7.403467583E0,7.338405609E0,-7.591621876E0,-6.680878162E0,1.249476101E1
7.413485583E0,4.394924045E-1,2.656331635E1,-5.419310927E-1,2.657247858E1
7.423504583E0,-3.846512318E0,3.288714981E1,-3.846572638E0,3.333401267E1
7.433523583E0,-6.139240742E0,2.889492416E1,8.131952882E-1,2.955111175E1
7.443542583E0,-8.943174362E0,8.961739540E0,-2.362039685E-2,1.266071488E1
7.453560583E0,-8.401145935E0,2.308288336E0,-9.972978830E-1,8.769381457E0
7.463579583E0,-8.927777290E0,1.016512394E0,-1.405761957E0,9.094760661E0
7.473598583E0,-7.728389740E0,2.032241106E0,-1.499779820E0,8.130642742E0
7.483617583E0,-7.348473072E0,1.524778485E0,-1.349172354E0,7.625304713E0
7.493635583E0,-6.866910934E0,6.054633260E-1,-1.192296743E0,6.995900453E0
7.503654583E0,-5.536751270E0,2.529520988E0,-9.459830523E-1,6.160273938E0
7.513673583E0,1.196204662E0,6.715040803E-1,5.713063851E-2,1.372984790E0
7.523692583E0,5.335736871E-1,-5.102639794E-1,4.686399400E-1,8.744676104E-1
7.533711583E0,1.463251233E0,-1.669003010E0,6.261792183E-1,2.306247088E0
7.543729583E0,3.538883686E0,-1.833343625E0,5.276051164E-1,4.020349954E0
7.553748583E0,1.394695401E0,-1.338538885E0,5.508776903E-1,2.010056676E0
7.563767583E0,-1.374225765E-1,-1.255917668E0,6.014523506E-1,1.399270912E0
7.573786583E0,6.130050421E-1,-9.708107710E-1,6.229283214E-1,1.306249757E0
7.583804583E0,-3.349148929E-1,-4.524016976E-1,6.428493261E-1,8.544533560E-1
7.593823583E0,-1.359507203E0,-9.710890651E-1,6.703951955E-1,1.800195413E0
7.603842583E0,2.919335663E-1,-6.769495010E-1,6.831567883E-1,1.005081604E0
7.613861583E0,6.931704283E-1,-8.451192975E-1,6.128895283E-1,1.253134248E0
7.623880583E0,-4.448129237E-2,-1.134405375E0,6.086315513E-1,1.288132953E0
7.633898583E0,6.355893612E-1,-1.384534836E0,6.331291795E-1,1.649776684E0
7.643917583E0,9.900581241E-1,-5.824085474E-1,6.408340931E-1,1.315326248E0
7.653936583E0,-1.081714928E-1,-9.009479284E-1,6.206358671E-1,1.099362143E0
7.663955583E0,-1.175268069E-1,-9.957357049E-1,6.476334333E-1,1.193621049E0
7.673973583E0,7.135621309E-1,-5.714811087E-1,6.825243235E-1,1.140877305E0
7.683992583E0,4.538066089E-1,-4.238108099E-1,6.972544789E-1,9.336593861E-1
7.694011583E0,-1.220291294E-2,5.845352411E-1,7.452747226E-1,9.472406090E-1
7.704030583E0,9.926645458E-2,2.513980865E0,8.145132661E-1,2.644500989E0
7.714048583E0,1.298709661E-1,3.578790665E0,8.765835762E-1,3.686869655E0
7.724067583E0,-1.133800521E-1,4.104854107E0,8.719949722E-1,4.197982552E0
7.734086583E0,-3.653651476E-1,4.149249077E0,8.437612057E-1,4.249905007E0
7.744105583E0,-4.330450296E-1,3.231558084E0,8.045820594E-1,3.358250726E0
7.754124583E0,-4.314545989E-1,1.728494406E0,7.647030950E-1,1.938715246E0
7.764142583E0,-4.639232457E-1,7.494983673E-1,6.907942891E-1,1.119897018E0
7.774161583E0,-4.909607470E-1,1.861497760E-1,5.950264931E-1,7.935683472E-1
7.784180583E0,-5.160430074E-1,-2.058918178E-1,5.368329287E-1,7.725810115E-1
7.794199583E0,-5.174648762E-1,-5.145564675E-1,4.841060936E-1,8.757265362E-1
7.804217583E0,-4.487016499E-1,-6.570407748E-1,4.350871742E-1,9.068277673E-1
7.814236583E0,-4.457178414E-1,-6.966281533E-1,3.991515338E-1,9.183012170E-1
7.824255583E0,-4.686455429E-1,-7.445278168E-1,3.586487174E-1,9.500416924E-1
7.834274583E0,-4.088360071E-1,-7.191191316E-1,3.129781783E-1,8.844402445E-1
7.844292583E0,-3.369494081E-1,-6.661183834E-1,2.594460845E-1,7.902916392E-1
7.854311583E0,-2.912173271E-1,-5.957451463E-1,2.101744115E-1,6.956242478E-1
7.864330583E0,-2.263775766E-1,-4.967077076E-1,1.569267660E-1,5.679712703E-1
7.874349583E0,-1.444683373E-1,-3.939123452E-1,9.763627499E-2,4.307793848E-1
7.884368583E0,-8.062468469E-2,-2.476034164E-1,4.188207164E-2,2.637458996E-1
7.894386583E0,-1.365470700E-2,-1.784166247E-1,-8.525175974E-3,1.791413453E-1
7.904405583E0,4.033023119E-2,-1.469798684E-1,-5.740989372E-2,1.628665256E-1
7.914424583E0,7.245860249E-2,-1.030670106E-1,-8.591584116E-2,1.524945557E-1
7.924443583E0,8.349776268E-2,-7.833062112E-2,-9.766224772E-2,1.504841427E-1
7.934461583E0,7.696422935E-2,-9.177665412E-2,-9.283766896E-2,1.515429959E-1
7.944480583E0,5.567082018E-2,-1.139260381E-1,-8.344059438E-2,1.517916835E-1
7.954499583E0,4.204129428E-2,-1.308347285E-1,-7.359648496E-2,1.558898303E-1
7.964518583E0,2.509781159E-2,-1.528693736E-1,-5.395574868E-2,1.640431905E-1
7.974537583E0,4.740341567E-3,-1.521119773E-1,-3.040514700E-2,1.551934195E-1
7.984555583E0,-1.024052035E-3,-1.121592522E-1,-1.250561513E-2,1.128589249E-1
7.994574583E0,-1.047754195E-3,-5.816898122E-2,-4.201896372E-4,5.817993404E-2
8.004593583E0,-2.425512765E-3,-3.718937049E-3,7.028514519E-3,8.313460248E-3
8.014612583E0,-1.392205711E-3,3.073810600E-2,7.972871885E-3,3.178578429E-2
8.024630583E0,-3.145784140E-4,5.325776711E-2,7.289467845E-3,5.375523285E-2
8.034649583E0,-4.090675153E-3,7.117684931E-2,1.039205026E-2,7.204770787E-2
8.044668583E0,-6.200057920E-3,6.517955661E-2,1.088675484E-2,6.637271087E-2
8.054687583E0,-8.826732635E-3,4.456509277E-2,7.000936661E-3,4.596707318E-2
8.064706583E0,-5.292008631E-3,1.775223203E-2,3.453612793E-3,1.884342163E-2
8.074724583E0,1.639932860E-3,-4.522713833E-3,-1.967251534E-3,5.197537762E-3
8.084743583E0,5.546160042E-3,-2.446957678E-2,-5.842501763E-3,2.576150045E-2
8.094762583E0,7.235935424E-3,-3.647270799E-2,-4.771911073E-3,3.748850923E-2
8.104781583E0,1.145764999E-2,-3.873410076E-2,-3.810946597E-3,4.057254760E-2
8.114799583E0,8.589159697E-3,-3.277394921E-2,1.255370444E-5,3.388075513E-2
8.124818583E0,6.866857409E-3,-1.545026619E-2,-1.094559673E-3,1.694291937E-2
8.134837583E0,1.171953510E-3,2.466417383E-3,8.841691306E-4,2.870269115E-3
8.144856583E0,-2.463855781E-3,1.432300732E-2,3.271400696E-3,1.489701938E-2
8.154875583E0,-5.165366456E-3,2.184324339E-2,1.483087894E-3,2.249461807E-2
8.164893583E0,-3.778729122E-3,1.572466269E-2,-6.416994147E-4,1.618504213E-2
8.174912583E0,-1.546734478E-3,9.385541081E-3,-5.950940540E-4,9.530734802E-3
8.184931583E0,-1.496861689E-3,8.873604238E-4,9.608420660E-4,1.987767822E-3
8.194950583E0,8.571059443E-4,-7.742613088E-3,-1.454645069E-3,7.924561837E-3
8.204968583E0,2.609367948E-3,-1.186736953E-2,-3.031586763E-3,1.252332938E-2
8.214987583E0,5.154018290E-3,-1.030276250E-2,-1.985162380E-4,1.152172853E-2
8.225006583E0,5.161236040E-3,-1.085395087E-2,-1.615617424E-3,1.212669891E-2
8.235025583E0,4.995320924E-3,-4.883143120E-3,-4.579413217E-4,7.000573413E-3
8.245044583E0,3.386460245E-3,1.252436196E-3,-1.397633809E-3,3.871703717E-3
8.255062583E0,2.441037912E-3,1.428471180E-3,3.202444408E-3,4.272569038E-3
8.265081583E0,4.013855942E-4,2.604325302E-3,4.791216052E-4,2.678278960E-3
8.275100583E0,-2.260976005E-3,1.179534243E-3,-1.666587195E-3,3.046444880E-3
8.285120167E0,-7.128366269E-4,-9.852722287E-4,-3.891529050E-3,4.077118562E-3
8.295138167E0,7.425802760E-4,-3.473996185E-3,-3.775947727E-3,5.184385807E-3
8.305157167E0,1.668850891E-4,-4.696859978E-3,-9.890273213E-4,4.802761636E-3
8.315176167E0,3.385315184E-3,-4.365562461E-3,-2.119805431E-3,5.917099759E-3
8.325195167E0,3.639007919E-3,-3.673286410E-3,-8.552257787E-4,5.240879966E-3
8.335214167E0,1.755087636E-3,3.374342341E-4,1.341349445E-3,2.234594551E-3
8.345232167E0,4.148532636E-3,-1.121110283E-3,1.638850546E-3,4.599243679E-3
8.355251167E0,2.523884177E-6,-9.573260322E-4,-6.338911480E-4,1.148171368E-3
8.365270167E0,1.883994322E-3,-1.712306635E-3,8.876168868E-4,2.696162524E-3
8.375289167E0,5.701102782E-3,-7.644875441E-4,-5.614091060E-4,5.779463152E-3
8.385307167E0,3.613983747E-3,-1.802321291E-3,4.402057966E-4,4.062391131E-3
8.395326167E0,1.400630455E-3,-4.028303083E-4,2.157013514E-4,1.473283748E-3
8.405345167E0,9.563886560E-4,-3.375003813E-3,9.286631830E-4,3.628738804E-3
8.415364167E0,-1.211691182E-3,-7.608449087E-4,1.627476653E-3,2.166970409E-3
8.425383167E0,2.068035770E-3,-2.409530804E-3,-5.572512164E-4,3.223839258E-3
8.435401167E0,3.455808852E-3,-9.397321846E-4,1.811364200E-3,4.013321774E-3
8.445420167E0,-3.863777965E-5,-4.425633233E-4,1.163700479E-3,1.245613896E-3
8.455439167E0,1.438617706E-3,1.840032171E-3,8.591916412E-5,2.337246542E-3
8.465458167E0,2.288092859E-3,-4.599920474E-3,6.730515743E-4,5.181470421E-3
8.475476167E0,1.471567899E-3,-2.410269575E-3,-6.838290719E-4,2.905603845E-3
8.485495167E0,1.198549289E-3,-2.146693878E-3,9.229928837E-4,2.626162765E-3
8.495514167E0,1.061396673E-3,-7.128478028E-4,-6.088574301E-4,1.416129323E-3
8.505533167E0,2.333854791E-3,-2.371997107E-3,-1.415528823E-3,3.616209384E-3
8.515552167E0,3.948262893E-3,6.618760526E-4,-6.890185759E-4,4.062216929E-3
8.525570167E0,-5.704825744E-4,-2.511760686E-4,-1.052650972E-3,1.223361702E-3
8.535589167E0,2.314253710E-3,-4.122974351E-4,-1.104316325E-3,2.597166524E-3
8.545608167E0,1.027388498E-4,-9.830982890E-4,-2.390057547E-3,2.586389877E-3
8.555627167E0,2.387198154E-3,-4.509922117E-3,2.049964853E-3,5.499133425E-3
8.565646167E0,2.375846729E-3,-2.070484916E-3,6.329582538E-4,3.214372663E-3
8.575664167E0,7.225559093E-4,-8.318487089E-4,-2.440329641E-3,2.677548893E-3
8.585683167E0,2.246778924E-3,-6.184778176E-4,1.645944430E-4,2.336155319E-3
8.595702167E0,1.766078640E-3,6.409309572E-4,-8.639183361E-4,2.067892924E-3
8.605721167E0,3.496974707E-3,-8.806532715E-4,-4.411204136E-4,3.633038605E-3
8.615740167E0,5.485895090E-4,-2.991474699E-3,-4.922530497E-4,3.080938881E-3
8.625758167E0,-9.722998366E-4,4.412207054E-4,5.113785155E-4,1.183871053E-3
8.635777167E0,2.245331649E-3,-5.968795158E-4,-1.178663457E-3,2.605192299E-3
8.645796167E0,1.778541598E-3,-1.575256465E-3,-2.830063691E-3,3.695118895E-3
8.655815167E0,1.034188084E-3,-4.103898536E-4,-1.139056403E-4,1.118453987E-3
8.665833167E0,8.581113070E-5,-1.285926206E-3,1.171942102E-3,1.741958107E-3
8.675852167E0,1.414728351E-3,-2.320830710E-3,2.092093928E-4,2.726074112E-3
8.685871167E0,3.562211059E-3,-1.650667284E-3,1.237716060E-3,4.116550881E-3
8.695890167E0,3.150220029E-3,-1.454658573E-3,4.808457161E-4,3.503017328E-3
8.705909167E0,3.946130164E-4,4.844060168E-4,3.387956822E-4,7.107398512E-4
8.715927167E0,7.533407770E-4,-1.384866657E-3,1.010711188E-3,1.872675917E-3
8.725946167E0,1.932084560E-3,-1.639113296E-3,-1.919396920E-3,3.178636136E-3
8.735965167E0,8.287369274E-4,-1.790380571E-3,1.032450818E-3,2.226706576E-3
8.745984167E0,1.644883305E-4,1.439682674E-4,-7.561372477E-4,7.871002542E-4
8.756003167E0,-2.477367874E-3,1.149311545E-3,-5.926191225E-4,2.794542187E-3
8.766021167E0,2.948092762E-3,-8.583597373E-4,-7.301646983E-4,3.156132580E-3
8.776040167E0,8.678976446E-4,-1.560901757E-3,8.416329511E-4,1.974337013E-3
8.786059167E0,1.901358366E-3,-4.547019489E-4,-2.279524226E-3,3.003023176E-3
8.796078167E0,-1.165271737E-3,6.795383524E-4,9.002902079E-4,1.621774661E-3
8.806096167E0,9.630275890E-4,-3.200748470E-4,-3.834487288E-4,1.084851590E-3
8.816115167E0,-2.240222413E-3,-5.954457447E-4,2.749494044E-3,3.596229914E-3
8.826134167E0,1.138350926E-4,-7.840758190E-4,-9.610548150E-4,1.245535899E-3
8.836153167E0,1.186822541E-3,2.187479287E-3,2.067225520E-3,3.235279698E-3
8.846172167E0,3.728001378E-3,5.569206551E-4,2.628789516E-4,3.778526199E-3
8.856190167E0,2.252876293E-3,-2.775758971E-3,-5.078398390E-4,3.610843496E-3
8.866209167E0,3.379901405E-3,-2.694321796E-3,-3.405723255E-4,4.335792080E-3
8.876228167E0,1.595583279E-3,-1.540906727E-3,1.711393241E-3,2.801632804E-3
8.886247167E0,1.611997839E-3,-1.350726234E-3,1.206699177E-3,2.424689938E-3
8.896266167E0,8.782972582E-4,-1.187740825E-3,-6.830798811E-4,1.627492693E-3
8.906284167E0,8.521066047E-4,1.833855640E-3,-2.919819904E-3,3.551684171E-3
8.916303167E0,-1.090403181E-3,1.764613437E-3,1.824964420E-4,2.082341141E-3
8.926322167E0,-1.548684668E-3,-4.482807126E-4,2.043645363E-3,2.603049398E-3
8.936341167E0,2.443660516E-3,-1.118864864E-3,-3.526685759E-6,2.687628646E-3
8.946359167E0,1.426558010E-4,-1.182151027E-4,3.606596147E-4,4.054637416E-4
8.956378167E0,7.847440429E-4,7.635575021E-4,9.801108390E-4,1.469510302E-3
8.966397167E0,5.875038914E-4,-3.175569233E-3,3.724318522E-4,3.250862387E-3
8.976416167E0,-4.287580959E-4,-1.798182260E-3,-1.574871480E-3,2.428479591E-3
8.986435167E0,1.579794101E-3,-1.753312536E-3,7.334010443E-4,2.471382476E-3
8.996453167E0,7.129353471E-4,-2.044129651E-3,-4.671519855E-4,2.214717548E-3
9.006472167E0,2.883691341E-4,-6.833916996E-4,-1.302990480E-3,1.499321568E-3
9.016491167E0,-1.976578496E-4,-2.110579750E-3,-5.964539014E-4,2.202129143E-3
9.026510167E0,-4.429631401E-3,3.192820586E-4,-5.322467769E-5,4.441442136E-3
9.036529167E0,7.022796199E-4,5.589541979E-5,-1.567764208E-3,1.718780257E-3
9.046547167E0,1.369175967E-3,-1.549933571E-3,-1.550004468E-3,2.584463340E-3
9.056566167E0,8.155046962E-4,7.645902224E-5,-1.042406075E-3,1.325708986E-3
9.066585167E0,1.576246228E-3,-9.417727124E-4,-1.645242213E-3,2.465422875E-3
9.076604167E0,-1.148167532E-3,6.891471567E-4,3.848853812E-4,1.393323093E-3
9.086623167E0,2.061608247E-3,3.327708691E-5,1.448093099E-4,2.066955652E-3
9.096641167E0,2.242578194E-5,5.030587781E-4,-8.943561115E-4,1.026374154E-3
9.106660167E0,-1.426430419E-3,6.680208026E-4,8.446827997E-5,1.577368195E-3
9.116679167E0,-3.705965355E-5,1.489872346E-3,-9.752035257E-4,1.781043217E-3
9.126698167E0,4.370375536E-4,8.346589748E-4,1.892438391E-3,2.113996332E-3
9.136716167E0,-5.565877073E-4,-1.685223775E-3,-1.050354564E-3,2.062283627E-3
9.146735167E0,1.316165086E-3,-1.398043009E-3,-4.264737945E-4,1.966899765E-3
9.156754167E0,7.355962880E-4,1.505850814E-4,3.879208234E-4,8.451392376E-4
9.166773167E0,2.539716661E-6,-2.439116593E-3,4.812452244E-5,2.439592625E-3
9.176792167E0,1.256621908E-3,7.212568307E-4,1.495286240E-3,2.082112143E-3
9.186810167E0,2.118305769E-3,-9.087484796E-4,2.932337346E-3,3.729831824E-3
9.196829167E0,-2.154223621E-4,-5.484228022E-4,-2.520218724E-3,2.588180207E-3
9.206848167E0,9.673214518E-4,-2.488828497E-3,1.754369354E-3,3.194963209E-3
9.216867167E0,-4.582689144E-4,-8.661646862E-4,-5.388787249E-4,1.118321037E-3
9.226886167E0,-7.233917713E-4,-4.203032702E-3,9.154131985E-4,4.361967546E-3
9.236904167E0,-4.906309769E-4,-5.537029356E-4,1.393983257E-3,1.578130228E-3
9.246923167E0,1.640040427E-3,3.087615361E-3,-2.518288791E-3,4.308698140E-3
9.256942167E0,4.277694970E-4,8.276569424E-4,5.004042177E-4,1.057547700E-3
9.266961167E0,7.152422331E-4,1.312381122E-3,6.510928506E-5,1.496046417E-3
9.276980167E0,3.285510466E-4,7.832110859E-4,-5.029429449E-4,9.870749724E-4
9.286998167E0,6.590303965E-4,-6.085925270E-4,-2.889985219E-3,3.026007352E-3
9.297017167E0,-1.468834933E-3,-7.848939858E-4,-5.701056798E-4,1.760271319E-3
9.307036167E0,-6.047044881E-4,1.949338475E-3,-7.198832463E-6,2.040989915E-3
9.317055167E0,-6.044381298E-4,-7.527046837E-4,-2.222948708E-3,2.423512069E-3
9.327074167E0,8.994620293E-5,-6.932162214E-4,-5.279527977E-4,8.759984051E-4
9.337092167E0,-1.152418088E-3,1.302331220E-4,-1.351934858E-3,1.781223168E-3
9.347111167E0,-1.110536978E-4,-7.804040797E-5,1.036099158E-3,1.044952006E-3
9.357130167E0,-1.571234316E-5,6.292951293E-4,-8.185261395E-4,1.032591051E-3
9.367149167E0,-1.338461414E-3,1.730266493E-3,-2.552039223E-4,2.202369209E-3
9.377167167E0,-1.966700889E-3,1.932932995E-3,-5.822401727E-4,2.818358737E-3
9.387186167E0,-9.084222838E-4,-4.560407251E-5,-4.909496056E-4,1.033606449E-3
9.397205167E0,9.904112667E-4,-1.782295294E-4,-1.926127123E-3,2.173164958E-3
9.407224167E0,2.446072176E-5,-8.045905270E-4,8.874257328E-4,1.198118806E-3
9.417243167E0,-3.451858647E-4,8.628146024E-4,4.342078231E-3,4.440410531E-3
9.427261167E0,-1.326125115E-3,2.832953585E-3,7.038529729E-4,3.206188211E-3
9.437280167E0,-1.664832234E-5,3.122705501E-3,2.312668599E-3,3.885872213E-3
9.447299167E0,3.264720086E-3,7.981441449E-4,5.038095405E-4,3.398419540E-3
9.457318167E0,-9.625158273E-4,-2.089255257E-3,4.055388854E-4,2.335783815E-3
9.467337167E0,-1.546267420E-3,-5.658180453E-4,-5.685352371E-4,1.741931488E-3
9.477355167E0,-2.020043321E-3,2.094946336E-3,-5.107446923E-4,2.954697160E-3
9.487374167E0,2.287155949E-3,-1.865884988E-3,-3.729445743E-4,2.975180125E-3
9.497393167E0,2.293281257E-3,-2.578685526E-4,-1.827948727E-4,2.314962004E-3
9.507412167E0,1.620931085E-3,3.268681467E-4,-9.419665439E-4,1.903040025E-3
9.517431167E0,-5.609965883E-4,8.986487519E-4,-2.069016220E-3,2.324460124E-3
9.527449167E0,4.191589542E-4,3.117747372E-3,-5.937422975E-4,3.201339223E-3
9.537468167E0,-2.621372230E-3,7.517951308E-4,-7.197098457E-4,2.820420279E-3
9.547487167E0,5.345591344E-4,6.970982067E-4,-3.048575018E-4,9.298588465E-4
9.557506167E0,-1.128318254E-3,1.796184806E-3,2.218754031E-3,3.069568600E-3
9.567525167E0,-2.153171226E-4,-5.432965700E-4,-1.364535186E-3,1.484415340E-3
9.577543167E0,-1.488574315E-3,1.449014177E-3,-5.658532609E-4,2.153064209E-3
9.587562167E0,2.056492027E-3,1.016887021E-3,-1.464114641E-3,2.721552930E-3
9.597581167E0,-2.894867212E-4,-6.617032923E-4,-6.260179216E-4,9.557992712E-4
9.607600167E0,-1.894150395E-3,8.126238827E-4,-2.820076770E-4,2.080310463E-3
9.617619167E0,-3.806757741E-4,-1.181508414E-4,-1.089478144E-3,1.160101846E-3
9.627637167E0,2.562702633E-3,1.124342903E-3,-2.470144536E-4,2.809378560E-3
9.637656167E0,-5.087205209E-4,-2.001738176E-5,3.836220421E-4,6.374661835E-4
9.647675167E0,-3.168219700E-5,-7.206648588E-4,1.889455598E-4,7.456956651E-4
9.657694167E0,-1.185097732E-3,1.224774169E-3,-6.946912617E-4,1.840414178E-3
9.667713167E0,2.482834738E-3,9.879376739E-5,8.622399764E-4,2.630149486E-3
9.677731167E0,2.250873484E-3,1.948625548E-3,-4.815911525E-4,3.015875164E-3
9.687750167E0,1.915995963E-4,-1.540405210E-4,1.454771380E-3,1.475397796E-3
9.697769167E0,4.738946445E-4,-9.314173367E-4,2.229751321E-3,2.462499815E-3
9.707788167E0,-1.999947708E-3,1.091515063E-3,3.804008011E-3,4.434148499E-3
9.717807167E0,-1.557063777E-3,-4.480583593E-4,-1.332164509E-3,2.097585798E-3
9.727825167E0,-3.869977314E-3,7.049174746E-4,2.015171340E-4,3.938812284E-3
9.737844167E0,5.207760260E-4,2.140627708E-3,-1.197175123E-3,2.507333829E-3
9.747863167E0,-4.485594109E-4,1.943336800E-3,-1.244393061E-3,2.350803597E-3
9.757882167E0,-4.134057090E-4,-2.006929833E-3,-4.544995027E-4,2.098866702E-3
9.767901167E0,1.007541548E-3,-3.292574547E-4,-1.294952119E-3,1.673454939E-3
9.777919167E0,2.775690518E-4,5.277479067E-4,1.468833070E-4,6.141149221E-4
9.787938167E0,2.350674476E-3,7.228999166E-4,-4.644931760E-4,2.502800171E-3
9.797957167E0,-2.933116630E-4,-8.483673446E-5,-1.472766045E-3,1.504084049E-3
9.807976167E0,6.100339815E-4,-3.835875541E-4,5.861517275E-5,7.229914306E-4
9.817995167E0,2.277438994E-3,2.397285309E-3,-4.577717045E-4,3.338152207E-3
9.828013167E0,-1.293984242E-3,1.679738052E-4,-2.154289046E-3,2.518644817E-3
9.838032167E0,-7.770648226E-4,-3.694521729E-4,-6.586578093E-4,1.083584217E-3
9.848051167E0,1.279184595E-3,2.146625658E-3,-7.572186296E-4,2.611071619E-3
9.858070167E0,6.434880197E-4,-1.718420302E-3,-1.690656412E-3,2.495067990E-3
9.868089167E0,7.388358936E-4,-1.938100904E-3,-1.165553578E-3,2.379207586E-3
9.878107167E0,4.069879651E-6,3.048135899E-3,-6.451718509E-4,3.115669389E-3
9.888126167E0,2.967282198E-4,8.010674501E-4,9.627643740E-4,1.287117685E-3
9.898145167E0,-2.473225817E-3,6.242335076E-4,-5.472479970E-4,2.608829965E-3
9.908164167E0,-1.263140701E-3,8.481638506E-4,-2.259966568E-4,1.538174514E-3
9.918183167E0,-1.680487767E-4,5.251225084E-4,-8.973795339E-4,1.053225554E-3
9.928201167E0,-1.494881231E-3,-2.381750382E-4,1.015170012E-3,1.822626511E-3
9.938220167E0,-3.085853066E-3,-1.774286153E-3,-1.240793848E-3,3.769635244E-3
9.948239167E0,-7.630907930E-4,-1.849244116E-3,-4.750973312E-4,2.056144166E-3
9.958258167E0,-4.560281523E-4,-1.122733578E-3,7.771209348E-4,1.439586507E-3
9.968277167E0,2.193162218E-4,-6.231358275E-4,2.150677145E-3,2.249846671E-3
9.978295167E0,2.422197722E-4,-2.409722656E-4,1.708059688E-3,1.741897227E-3
9.988314167E0,2.808216959E-5,-5.205813795E-5,1.069270656E-4,1.221967894E-4
9.998333167E0,4.243603908E-4,1.503227977E-3,1.705356408E-3,2.312577906E-3
1.000835217E1,-1.263752580E-3,9.287106805E-4,8.900330868E-4,1.803256223E-3
1.001837117E1,-2.645133995E-3,2.919489052E-4,-9.547386435E-4,2.827276762E-3
1.002838917E1,6.293314509E-4,2.220719820E-3,-2.219226677E-3,3.201971524E-3
1.003840817E1,-4.798746668E-4,5.900663091E-4,-2.350254217E-3,2.470253596E-3
1.004842717E1,-3.051566891E-4,7.386903744E-4,-1.417996478E-3,1.627727891E-3
1.005844617E1,2.141755540E-3,-2.763099968E-3,-1.106672920E-3,3.666955574E-3
1.006846517E1,5.700862966E-4,-8.606144693E-4,1.046023332E-3,1.469632764E-3
1.007848317E1,-1.708514523E-3,9.180512279E-7,5.826333654E-4,1.805127241E-3
1.008850217E1,2.015549690E-3,1.221361686E-3,-1.905751764E-3,3.030850492E-3
1.009852117E1,-1.393030398E-3,9.691603482E-4,-6.399513222E-4,1.813654643E-3
1.010854017E1,1.251315698E-3,1.330695814E-3,-1.252571936E-3,2.214831546E-3
1.011855917E1,-1.756458543E-3,3.533156123E-4,1.676372602E-3,2.453610327E-3
1.012857717E1,9.715729393E-4,2.231874270E-3,-3.929793020E-4,2.465694520E-3
1.013859617E1,-5.972958170E-4,6.534187123E-4,1.327955397E-3,1.595989926E-3
1.014861517E1,3.439570311E-3,-1.094787614E-3,1.565191778E-4,3.612990742E-3
1.015863417E1,8.776094764E-4,1.627495512E-3,-8.147356566E-4,2.020577696E-3
1.016865317E1,-6.540631875E-5,-9.071591776E-4,-1.238541445E-3,1.536619885E-3
1.017867117E1,-1.529878937E-3,-1.873068977E-4,3.385823802E-4,1.578053061E-3
1.018869017E1,2.894643694E-4,2.372425515E-4,1.375957858E-3,1.425950096E-3
1.019870917E1,3.882674500E-4,-1.963593531E-3,2.867328003E-3,3.496858740E-3
1.020872817E1,1.244638115E-4,7.691583596E-5,9.983244818E-4,1.008989126E-3
1.021874717E1,-4.515778273E-4,-9.737012442E-4,1.438811421E-3,1.795047340E-3
1.022876517E1,8.862372488E-4,2.036215737E-4,1.655171043E-3,1.888509833E-3
1.023878417E1,7.128650323E-4,3.556881566E-4,8.719353937E-4,1.181085073E-3
1.024880317E1,1.758616418E-4,-2.264864277E-3,9.933118708E-4,2.479355961E-3
1.025882217E1,2.448372543E-4,2.267893869E-4,8.548275218E-4,9.176648621E-4
1.026884117E1,-2.181027085E-4,7.916544564E-4,-5.030305474E-4,9.629773110E-4
1.027886017E1,-1.583239064E-3,1.285404433E-3,-1.327811508E-3,2.433514719E-3
1.028887842E1,4.471717402E-4,-1.172648044E-3,-5.351459258E-4,1.364348622E-3
1.029889742E1,-3.967839293E-4,2.719828160E-3,3.895036061E-4,2.776079208E-3
1.030891642E1,7.364647463E-4,1.768702990E-3,-2.201864030E-3,2.918714751E-3
1.031893542E1,-2.443882637E-3,4.094254691E-4,-1.941939467E-3,3.148224968E-3
1.032895442E1,2.261614427E-4,1.183667220E-3,-5.437819054E-4,1.322087685E-3
1.033897242E1,1.200345811E-3,1.882480690E-3,5.126941251E-4,2.290724532E-3
1.034899142E1,-6.758654490E-5,7.080542855E-5,-1.687358483E-3,1.690195255E-3
1.035901042E1,-1.242573373E-3,1.683083130E-3,-1.083619893E-3,2.356053794E-3
1.036902942E1,4.496704787E-5,-2.396066440E-3,1.236785436E-3,2.696811939E-3
1.037904842E1,-4.815398715E-4,-1.610700274E-3,3.379686095E-4,1.714776604E-3
1.038906642E1,1.725383569E-3,-8.389796130E-4,-2.486962127E-3,3.140989632E-3
1.039908542E1,9.719752707E-4,1.197583042E-4,-2.005462535E-3,2.231805985E-3
1.040910442E1,3.167786635E-4,7.094179746E-4,1.025282545E-4,7.836674214E-4
1.041912342E1,1.600688323E-3,9.544288041E-4,1.714805956E-3,2.532527772E-3
1.042914242E1,-1.566866878E-3,-5.574896932E-4,1.683953451E-5,1.663174718E-3
1.043916042E1,-1.159136649E-3,7.661012933E-4,7.785035996E-4,1.592663435E-3
1.044917942E1,6.438647397E-4,-5.578948185E-4,6.587290554E-4,1.076908724E-3
1.045919842E1,4.646340385E-4,1.726032002E-3,1.617200673E-3,2.410479055E-3
1.046921742E1,5.656317808E-4,-1.491652802E-5,3.345649457E-3,3.393159604E-3
1.047923642E1,7.456615567E-4,-1.024520723E-3,3.871437802E-4,1.324965726E-3
1.048925542E1,-1.194505021E-4,2.355738543E-4,9.720647940E-4,1.007309996E-3
1.049927342E1,2.549302764E-3,-1.292547910E-3,-6.245003315E-4,2.925683740E-3
1.050929242E1,-2.418925986E-3,2.201577649E-3,1.196478726E-3,3.482773092E-3
1.051931142E1,2.149993088E-3,-5.049929023E-4,-3.807886969E-6,2.208506873E-3
1.052933042E1,1.456967089E-3,-1.104695722E-3,1.144500915E-3,2.157078599E-3
1.053934942E1,1.807705499E-3,-7.618288510E-5,1.564681879E-4,1.816063132E-3
1.054936742E1,2.332953271E-3,-1.656989800E-3,-2.382478910E-3,3.723505326E-3
1.055938642E1,5.350448191E-6,-4.466891289E-3,-2.788078506E-3,5.265598557E-3
1.056940542E1,1.338758040E-3,-4.276786931E-3,9.649840649E-5,4.482464889E-3
1.057942442E1,-1.508959569E-3,7.515276084E-4,-2.097946126E-3,2.691306500E-3
1.058944342E1,7.752683014E-4,2.132377122E-3,-6.650447031E-4,2.364393703E-3
1.059946142E1,2.021561377E-4,1.924384153E-3,-1.103400951E-3,2.227468323E-3
1.060948042E1,-5.608359352E-4,-1.854987349E-4,-1.830851776E-3,1.923789217E-3
1.061949942E1,-2.242888324E-3,1.620923402E-3,-4.947016481E-3,5.668413603E-3
1.062951842E1,6.212489679E-4,-1.133963466E-3,7.884913939E-4,1.514444486E-3
1.063953742E1,1.736048143E-3,1.599505078E-3,1.371191116E-3,2.729916615E-3
1.064955542E1,1.955713145E-3,1.892647706E-4,-8.396185585E-4,2.136725154E-3
1.065957442E1,7.194736972E-4,1.639089547E-3,-1.369321253E-3,2.253729717E-3
1.066959342E1,-1.631306484E-3,9.539076127E-4,-3.022989025E-3,3.565047437E-3
1.067961242E1,1.263016835E-3,-2.422181657E-3,-3.313273424E-3,4.294177021E-3
1.068963142E1,-1.716806553E-3,-8.392753080E-5,3.793352516E-5,1.719275290E-3
1.069965042E1,1.036902424E-3,-2.711478155E-4,1.482165768E-3,1.829071660E-3
1.070966842E1,4.391404800E-4,4.598622909E-4,-9.082154138E-4,1.108680714E-3
1.071968742E1,3.487290815E-5,-6.810359191E-4,2.808859863E-4,7.375113424E-4
1.072970642E1,1.122119371E-3,2.885648515E-3,5.605054321E-4,3.146471925E-3
1.073972542E1,-2.940533217E-3,3.713092767E-3,2.462524571E-4,4.742829722E-3
1.074974442E1,1.360942144E-3,-1.131052151E-3,-1.418100088E-3,2.267697146E-3
1.075976242E1,-1.608748455E-3,3.156903433E-3,-1.045523910E-3,3.694215901E-3
1.076978142E1,3.268951550E-4,-2.569858916E-4,1.937981229E-3,1.982088150E-3
1.077980042E1,-2.198517323E-4,1.943584066E-3,-7.214514189E-4,2.084789187E-3
1.078981942E1,9.493390098E-4,1.233790303E-3,-1.430993667E-3,2.114527356E-3
1.079983842E1,-4.637339152E-4,-2.193431836E-3,8.694446879E-4,2.404605254E-3
1.080985642E1,1.280433964E-3,-6.115648430E-4,-3.712305333E-4,1.466742923E-3
1.081987542E1,-1.367014367E-3,-3.523198888E-3,-2.926000860E-3,4.779449729E-3
1.082989442E1,-1.542264596E-3,-8.945979644E-4,9.247367270E-4,2.008487893E-3
1.083991342E1,-2.814989537E-3,2.487882972E-3,6.064889603E-4,3.805464050E-3
1.084993242E1,1.630596817E-4,1.929322723E-3,-4.610915203E-4,1.990346709E-3
1.085995142E1,-5.956748500E-4,-9.045470506E-4,-2.202532487E-3,2.454421164E-3
1.086996942E1,-3.442084417E-4,7.367205108E-4,-7.775394479E-4,1.125079622E-3
1.087998842E1,1.231762581E-4,-8.015213534E-4,-1.429747557E-3,1.643711334E-3
1.089000742E1,1.995307393E-4,-6.763683632E-5,1.339529990E-3,1.355996996E-3
1.090002642E1,-1.683057752E-3,4.048761912E-5,1.070550759E-3,1.995094376E-3
1.091004542E1,9.325775318E-4,3.805670422E-4,-1.217288664E-3,1.579975891E-3
1.092006342E1,-1.307939645E-3,-2.062350512E-3,1.781430794E-3,3.022828381E-3
1.093008242E1,7.218583487E-4,5.735582672E-4,-1.709099161E-4,9.376879869E-4
1.094010142E1,-7.932144217E-4,2.872683108E-4,-2.129132394E-3,2.290178367E-3
1.095012042E1,1.583446749E-3,5.798679776E-4,1.639217953E-4,1.694231635E-3
1.096013942E1,-5.271085538E-4,1.995686907E-4,-7.191824843E-4,9.137256347E-4
1.097015842E1,-2.152249217E-4,-5.499273539E-4,-3.667307319E-4,6.951498336E-4
1.098017642E1,6.596236490E-4,-1.229832415E-3,2.071925905E-3,2.498092889E-3
1.099019542E1,-2.828333527E-5,9.715415072E-4,-1.354565145E-3,1.667195124E-3
1.100021442E1,-9.752530605E-5,9.562796913E-5,9.181764908E-4,9.282801097E-4
1.101023342E1,2.448516898E-4,-2.027289011E-4,-1.461151522E-3,1.495331109E-3
1.102025242E1,5.689584650E-4,2.978683216E-3,-1.820678124E-3,3.537108462E-3
1.103027042E1,1.006667968E-3,-1.988918521E-4,-3.020933946E-4,1.069672279E-3
1.104028942E1,8.103931323E-4,-2.441655379E-4,-1.709840260E-3,1.907854175E-3
1.105030842E1,3.142428584E-3,-6.799735129E-4,-9.061710443E-4,3.340414248E-3
1.106032742E1,-6.914585829E-4,-1.374259591E-3,-5.133547820E-4,1.621800705E-3
1.107034642E1,-2.603612375E-3,4.922864027E-4,-1.084858784E-3,2.863225782E-3
1.108036542E1,-1.442741137E-3,-4.667178728E-4,-1.190053532E-3,1.927577487E-3
1.109038342E1,-9.668166749E-4,-1.904957462E-3,1.935191685E-4,2.145005148E-3
1.110040242E1,-9.348592721E-4,2.769869752E-5,-6.480396842E-4,1.137842040E-3
1.111042142E1,-6.507299840E-4,-1.437296858E-3,9.607228567E-4,1.847230407E-3
1.112044042E1,-1.940499060E-3,-1.487097936E-3,-2.170089167E-3,3.268988202E-3
1.113045942E1,-1.739628613E-3,5.921914708E-4,-3.308732994E-5,1.837958982E-3
1.114047742E1,1.174135599E-3,-2.108253771E-3,-8.157903794E-4,2.547320615E-3
1.115049642E1,1.818039455E-4,9.567080997E-5,1.160736196E-3,1.178776524E-3
1.116051542E1,1.702202950E-3,-1.293966779E-3,1.698961016E-3,2.730991293E-3
1.117053442E1,1.050485298E-5,6.571478443E-4,5.684748176E-4,8.689748324E-4
1.118055342E1,1.406800002E-3,-3.431355581E-4,1.540794969E-3,2.114444937E-3
1.119057242E1,-1.620124560E-3,9.205895476E-4,-1.524344902E-3,2.407470889E-3
1.120059042E1,-1.726960763E-4,-7.910239510E-4,1.632299973E-3,1.822071905E-3
1.121060942E1,-6.601819769E-5,4.075235920E-4,1.807773369E-3,1.854313467E-3
1.122062842E1,2.470376436E-3,-2.180003561E-3,-1.630633953E-3,3.676158640E-3
1.123064742E1,2.183509525E-3,-2.511209343E-3,4.365322238E-4,3.356254846E-3
1.124066642E1,-2.332146280E-3,-3.710929304E-4,-1.557909185E-3,2.829080639E-3
1.125068542E1,6.558513269E-5,2.748079132E-4,1.199169783E-3,1.232002016E-3
1.126070342E1,-2.268296666E-4,-8.844723925E-5,-1.659467351E-3,1.677231797E-3
1.127072242E1,-1.184724737E-3,-7.639597170E-4,2.156156814E-3,2.576086054E-3
1.128074142E1,-1.125358976E-4,3.324636491E-4,-1.400761190E-3,1.444066590E-3
1.129076058E1,1.679665875E-3,-2.761916257E-4,-5.732132122E-4,1.796143828E-3
1.130077958E1,1.204025466E-3,1.067905920E-3,-4.917205079E-4,1.682821866E-3
1.131079758E1,-1.463909168E-3,-1.419151668E-3,-3.041836899E-4,2.061443481E-3
1.132081658E1,-6.353990175E-4,4.079309292E-5,-1.754008466E-3,1.865996165E-3
1.133083558E1,7.845074870E-4,-7.585699204E-4,-2.958299592E-3,3.153159812E-3
1.134085458E1,7.142000832E-4,-1.687952317E-5,1.210346469E-3,1.405455532E-3
1.135087358E1,-7.765195332E-4,9.618171025E-4,-1.285415376E-3,1.783358464E-3
1.136089258E1,1.191555988E-3,3.610225394E-5,-4.901956418E-4,1.288953379E-3
1.137091058E1,-1.331716776E-4,-4.730559886E-5,-2.002436086E-4,2.450918566E-4
1.138092958E1,-1.343046315E-3,-2.711265814E-3,1.036794740E-3,3.198386945E-3
1.139094858E1,2.205458470E-3,-8.394166362E-4,1.316494425E-3,2.702188913E-3
1.140096758E1,-1.503736712E-4,-1.886837883E-3,-9.527851944E-4,2.119096285E-3
1.141098658E1,-1.448338851E-3,-2.129975474E-3,-2.157376730E-4,2.584767628E-3
1.142100458E1,-8.997274563E-4,1.142702531E-4,-4.607485025E-4,1.017278904E-3
1.143102358E1,-1.152557321E-3,-3.482285654E-3,6.425027968E-4,3.723910794E-3
1.144104258E1,2.799569629E-4,-1.266269013E-3,1.677939901E-3,2.120682774E-3
1.145106158E1,2.304506488E-4,1.923772972E-3,1.142695197E-3,2.249391532E-3
1.146108058E1,-2.779187635E-3,3.855311079E-4,2.738461364E-3,3.920674532E-3
1.147109958E1,-1.271636691E-3,2.031706041E-3,-3.379405825E-4,2.420556371E-3
1.148111758E1,-1.200796571E-3,1.107680146E-4,-7.278273697E-4,1.408515047E-3
1.149113658E1,-1.551100053E-3,-1.306483988E-3,-3.898583818E-4,2.065139545E-3
1.150115558E1,-8.875830099E-5,-4.710503854E-4,-4.154246999E-4,6.343060640E-4
1.151117458E1,6.593642756E-4,-2.189526334E-3,-1.732477103E-4,2.293207707E-3
1.152119358E1,1.898487099E-4,7.922062650E-5,-6.070766831E-4,6.409840399E-4
1.153121258E1,-2.325307578E-3,-1.322226366E-3,-1.707995078E-3,3.173733618E-3
1.154123058E1,-1.022755168E-3,5.960485432E-4,8.393184398E-4,1.451122822E-3
1.155124958E1,1.233345363E-3,-1.399918925E-3,6.321514957E-4,1.969905910E-3
1.156126858E1,1.698066946E-3,4.163569538E-4,4.108427675E-4,1.795988933E-3
1.157128758E1,8.492362686E-4,-1.232200069E-3,-1.042940887E-3,1.824073722E-3
1.158130658E1,1.797854435E-3,-1.952851191E-3,1.080930117E-3,2.866063199E-3
1.159132458E1,-1.578311902E-3,2.089533955E-4,-1.875389600E-3,2.460043929E-3
1.160134358E1,7.061474025E-4,2.559725661E-3,-2.575001912E-3,3.698847721E-3
1.161136258E1,2.809022553E-4,1.603325363E-3,-2.336267615E-3,2.847403144E-3
1.162138158E1,-2.990942448E-6,-4.957662895E-6,-1.208152622E-3,1.208166496E-3
1.163140058E1,3.128568642E-4,-2.103907056E-3,-1.699972316E-3,2.722904734E-3
1.164141958E1,1.125920098E-3,5.485140719E-5,-6.277835928E-4,1.290277871E-3
1.165143758E1,-2.809917554E-3,-1.013074070E-4,2.106055035E-4,2.819619572E-3
1.166145658E1,7.307552733E-4,5.389165599E-4,3.307140432E-4,9.663364354E-4
1.167147558E1,2.520776819E-3,-7.738070562E-4,-1.552465837E-3,3.059941717E-3
1.168149458E1,-6.249486469E-4,-1.510170987E-3,-5.798792699E-4,1.734196410E-3
1.169151358E1,-7.574446499E-4,9.395905072E-4,8.086949820E-4,1.452769869E-3
1.170153258E1,-1.820578240E-3,-4.748143256E-4,-7.527163834E-4,2.026458913E-3
1.171155058E1,-4.100932740E-3,-2.138621872E-3,1.385686337E-3,4.828196296E-3
1.172156958E1,2.532469109E-3,2.432960318E-3,-1.008761814E-3,3.653805700E-3
1.173158858E1,-5.199122243E-4,7.496936014E-4,3.167072311E-3,3.295860470E-3
1.174160758E1,-2.349540591E-4,-1.244747778E-3,7.327814819E-5,1.268845983E-3
1.175162658E1,1.752488781E-3,-1.991924364E-4,1.847336651E-3,2.554123579E-3
1.176164558E1,1.134901773E-3,-4.236970562E-4,-1.252316521E-3,1.742359865E-3
1.177166358E1,9.124092758E-4,1.390729332E-3,-1.014882582E-3,1.948487983E-3
1.178168258E1,-1.524915919E-3,-1.500132028E-3,1.054393593E-3,2.384850207E-3
1.179170158E1,3.943471238E-4,-3.471970558E-5,-3.148301039E-4,5.057994724E-4
1.180172058E1,-1.717273146E-3,-2.225436037E-3,-1.844017068E-3,3.361843477E-3
1.181173958E1,1.258794684E-3,-7.753027603E-6,-1.051120344E-4,1.263199393E-3
1.182175758E1,-1.515154261E-3,3.073790576E-3,9.870503563E-4,3.566251442E-3
1.183177658E1,1.216201112E-3,1.280397992E-3,-2.246229444E-3,2.857290828E-3
1.184179558E1,-1.865342725E-3,1.590656349E-3,-1.620919211E-3,2.938889279E-3
1.185181458E1,-2.026102971E-3,-7.520844229E-4,-6.330432370E-6,2.161195110E-3
1.186183358E1,-3.299354576E-4,-1.678569242E-5,-2.538197674E-3,2.559606727E-3
1.187185258E1,-6.560925394E-4,-1.102984883E-3,-1.528852619E-3,1.996102052E-3
1.188187058E1,-4.528937861E-4,-1.249991357E-3,-1.063065603E-3,1.702263097E-3
1.189188958E1,-2.239409368E-3,-1.408350887E-3,-1.670932397E-4,2.650721919E-3
1.190190858E1,7.712943479E-4,3.046585014E-3,-9.055877454E-4,3.270575543E-3
1.191192758E1,-1.190271694E-3,-5.348883569E-4,2.063559601E-3,2.441542645E-3
1.192194658E1,1.800432801E-5,1.348967198E-4,-6.171782734E-4,6.320049857E-4
1.193196558E1,-8.574663661E-4,1.604036428E-3,6.407356705E-4,1.928399241E-3
1.194198358E1,-1.235368196E-3,1.033451408E-4,-1.356901368E-3,1.837932567E-3
1.195200258E1,-4.409439862E-4,1.090489910E-3,1.169024734E-3,1.658378326E-3
1.196202158E1,-2.577331848E-3,1.169585856E-3,2.602071734E-3,3.844651849E-3
1.197204058E1,-1.134537160E-4,-1.768836752E-3,2.393948613E-3,2.978698568E-3
1.198205958E1,1.129149459E-4,-9.493823163E-4,-1.962716691E-3,2.183193390E-3
1.199207858E1,2.253521234E-5,-1.149210148E-3,-1.100452850E-3,1.591285101E-3
1.200209658E1,-2.939673141E-5,2.577617532E-3,-1.472230302E-3,2.968575141E-3
1.201211558E1,2.572353929E-3,1.662033610E-3,7.844428183E-4,3.161441284E-3
1.202213458E1,5.536777899E-4,1.429539640E-3,9.708640864E-4,1.814585283E-3
1.203215358E1,2.404518425E-3,-1.148411306E-3,-1.725037582E-3,3.174320722E-3
1.204217258E1,5.379091017E-4,1.147259027E-4,-4.935920006E-4,7.390137329E-4
1.205219158E1,7.240539417E-4,2.670202870E-3,-8.762707002E-4,2.902083358E-3
1.206220958E1,-1.638968941E-3,-8.302561473E-4,-1.565763028E-3,2.413950770E-3
1.207222858E1,-1.754285768E-3,7.156701759E-4,-9.808042087E-4,2.133466487E-3
1.208224758E1,-5.891527981E-4,-6.515968125E-4,1.375027932E-3,1.631680496E-3
1.209226658E1,-1.410187222E-3,-3.946977668E-4,-5.530671333E-4,1.565342641E-3
1.210228558E1,-1.671975479E-3,2.233043313E-3,-3.360194969E-4,2.809785319E-3
1.211230458E1,9.131245315E-5,-9.396567475E-4,-1.389149460E-3,1.679591912E-3
1.212232258E1,8.731754497E-5,1.287278486E-3,-2.263199072E-3,2.605144966E-3
1.213234158E1,1.146742608E-3,-1.429341268E-3,-7.254764787E-4,1.970875742E-3
1.214236058E1,1.072973013E-3,-1.146247378E-3,4.399228201E-4,1.630547830E-3
1.215237958E1,-2.325564157E-3,6.803252036E-4,-5.639172741E-4,2.487788923E-3
1.216239858E1,-4.815915599E-4,2.024955116E-3,4.526113335E-4,2.130077621E-3
1.217241758E1,1.133386977E-4,-1.068949932E-3,9.981845506E-4,1.466926043E-3
1.218243558E1,3.010914661E-4,4.852708662E-4,2.309278934E-4,6.160126431E-4
1.219245458E1,-7.859151810E-5,1.989925746E-3,-5.989597412E-5,1.992377632E-3
1.220247358E1,-1.464500092E-3,-4.900097847E-4,-1.725969487E-3,2.315996714E-3
1.221249258E1,-1.215910539E-3,1.038867515E-3,1.099479152E-3,1.940757212E-3
1.222251158E1,-3.096363507E-4,2.322244924E-3,4.917458282E-4,2.393848390E-3
1.223253058E1,1.172701828E-3,1.059173024E-3,1.934939297E-3,2.498212792E-3
1.224254858E1,-1.940533053E-3,-8.654934354E-4,1.614561072E-3,2.668624153E-3
1.225256758E1,8.792900480E-4,-9.988923557E-4,5.741120549E-4,1.449324525E-3
1.226258658E1,-1.528740395E-3,-1.139507163E-3,5.924878642E-4,1.996638585E-3
1.227260558E1,2.135659102E-3,1.945456024E-3,-3.458778374E-4,2.909548147E-3
1.228262458E1,6.054067053E-4,1.365153235E-3,9.505489725E-4,1.770227100E-3
1.229264292E1,-2.685868181E-3,-1.144075533E-3,1.187642338E-3,3.151712397E-3
1.230266092E1,-2.726082690E-3,1.844257582E-3,8.994883392E-4,3.412021708E-3
1.231267992E1,1.072146464E-3,5.632856628E-4,8.488732856E-4,1.478977564E-3
1.232269892E1,-1.339079347E-3,-1.827700296E-3,-1.600169577E-3,2.773835710E-3
1.233271792E1,1.283688471E-3,2.193089109E-3,-1.150246011E-3,2.789365845E-3
1.234273692E1,8.136406541E-4,1.536405180E-4,-2.863166737E-4,8.761242837E-4
1.235275592E1,1.094503328E-3,-7.666652091E-4,5.384763354E-4,1.440718516E-3
1.236277392E1,2.763802186E-4,2.802235540E-4,-1.875146525E-3,1.916007765E-3
1.237279292E1,1.135205384E-3,-2.498177579E-3,1.867264160E-3,3.319074859E-3
1.238281192E1,2.579600550E-4,-4.237221554E-3,-1.023330842E-3,4.366668742E-3
1.239283092E1,-1.002913341E-3,2.332236618E-4,-5.820009392E-5,1.031317457E-3
1.240284992E1,-1.779757440E-3,-2.196112182E-3,1.214790856E-3,3.076712870E-3
1.241286892E1,-1.890491694E-5,-2.352501499E-3,-7.294224924E-4,2.463062701E-3
1.242288692E1,5.709850229E-4,1.439459156E-4,9.915122064E-4,1.153187226E-3
1.243290592E1,2.175942063E-3,9.635968599E-4,5.903892452E-5,2.380489102E-3
1.244292492E1,1.378857996E-3,2.623545006E-3,3.306813305E-4,2.982211916E-3
1.245294392E1,6.337314844E-4,-7.999949157E-4,1.130761229E-3,1.523229601E-3
1.246296292E1,6.896578707E-4,-1.254063798E-3,1.468450064E-3,2.050524220E-3
1.247298192E1,9.839893319E-4,-7.583159022E-4,-8.245016797E-4,1.491000011E-3
1.248299992E1,1.985603943E-3,-2.199352253E-3,2.996186377E-4,2.978178081E-3
1.249301892E1,1.745291054E-3,6.263082614E-4,1.432152465E-3,2.342939091E-3
1.250303792E1,3.359462135E-4,2.995384857E-4,-1.977022039E-4,4.915987431E-4
1.251305692E1,5.391556770E-4,-1.024075784E-3,-1.200806582E-3,1.667739939E-3
1.252307592E1,3.199387342E-3,1.170901465E-3,-9.704431286E-4,3.542435528E-3
1.253309492E1,-1.231054310E-3,5.177917192E-4,-6.126029184E-4,1.469314573E-3
1.254311292E1,9.900219738E-4,-1.591431908E-3,-2.770446008E-4,1.894611501E-3
1.255313192E1,-3.630616702E-4,-3.116421867E-4,-9.334680508E-4,1.048950538E-3
1.256315092E1,-9.633381851E-4,7.347137434E-4,1.322229393E-3,1.793353092E-3
1.257316992E1,1.854417846E-3,3.412666265E-4,-9.038134012E-4,2.090982334E-3
1.258318892E1,7.657175884E-4,5.250247195E-4,-2.854312537E-3,3.001512026E-3
1.259320792E1,2.360508777E-3,4.080063198E-3,-8.933066274E-4,4.797594618E-3
1.260322592E1,1.063815784E-3,-1.649461454E-3,-2.948942711E-4,1.984789596E-3
1.261324492E1,1.278902870E-3,1.347935176E-3,-1.218284597E-3,2.221877393E-3
1.262326392E1,-3.789891489E-3,2.480311319E-3,-1.029200153E-3,4.644833118E-3
1.263328292E1,5.898396485E-4,1.949020661E-4,-2.815320389E-3,2.883041193E-3
1.264330192E1,7.019587792E-4,-7.611727342E-4,2.196181449E-4,1.058471629E-3
1.265332092E1,-5.590915680E-5,2.009178279E-3,1.892173896E-5,2.010045080E-3
1.266333992E1,-1.313187182E-3,3.548226086E-4,1.512808376E-4,1.368665609E-3
1.267335792E1,1.799309161E-3,4.654607037E-4,1.009709900E-3,2.115107847E-3
1.268337692E1,2.113029826E-3,-5.422793329E-4,3.046761733E-3,3.747228173E-3
1.269339592E1,9.030876681E-4,-1.216954552E-4,-6.575824227E-5,9.136198698E-4
1.270341492E1,2.346341498E-4,1.797745936E-4,-1.371309627E-4,3.258481083E-4
1.271343392E1,-4.560779780E-4,7.229609182E-4,-3.281842219E-3,3.391337193E-3
1.272345292E1,2.825202420E-3,6.140376208E-4,1.250325236E-3,3.149940335E-3
1.273347092E1,6.692688912E-4,-2.842722926E-3,2.422057558E-3,3.794121413E-3
1.274348992E1,4.050829448E-4,1.312289387E-4,8.638420841E-4,9.630868978E-4
1.275350892E1,-1.790126786E-3,2.148873173E-4,9.207761614E-4,2.024489863E-3
1.276352792E1,-3.289486282E-3,1.665511052E-3,7.687096368E-4,3.766372468E-3
1.277354692E1,-9.770151228E-4,4.669371992E-4,1.046660473E-3,1.506016946E-3
1.278356592E1,-1.210840419E-3,-6.012567319E-4,-1.867370447E-3,2.305366905E-3
1.279358392E1,-7.746135816E-5,-4.510082304E-3,-5.173644167E-4,4.540320319E-3
1.280360292E1,-3.610877320E-4,-3.102601739E-3,1.281867269E-3,3.376345005E-3
1.281362192E1,2.541529015E-3,2.103833947E-3,-1.292075380E-3,3.543295895E-3
1.282364092E1,4.895632155E-4,2.563989256E-4,-1.699272660E-3,1.786879997E-3
1.283365992E1,-1.469735056E-3,-4.002898932E-4,-4.991688766E-4,1.602973082E-3
1.284367892E1,-1.108611003E-3,-4.274540115E-4,-1.610239618E-3,2.001151398E-3
1.285369792E1,-1.037271228E-3,2.051298507E-4,-1.729857642E-3,2.027416414E-3
1.286371592E1,-1.205316279E-3,1.931455918E-4,-1.757021761E-3,2.139443390E-3
1.287373492E1,1.016682945E-4,6.624553353E-4,-6.269826554E-4,9.177640021E-4
1.288375392E1,2.164286561E-3,1.796695637E-3,-1.448567957E-3,3.163953327E-3
1.289377292E1,8.990773931E-4,4.334311234E-4,-1.239259960E-3,1.591215870E-3
1.290379192E1,2.584591974E-3,9.307917207E-5,1.787688816E-3,3.143980074E-3
1.291381092E1,7.733190432E-5,2.845611889E-4,2.575013204E-4,3.914871948E-4
1.292382892E1,9.572403505E-4,7.809743984E-4,8.444620762E-4,1.496444552E-3
1.293384792E1,4.492625594E-4,1.473914366E-3,1.715065679E-3,2.305582505E-3
1.294386692E1,-1.177396625E-3,4.608479794E-4,-2.303734655E-4,1.285190883E-3
1.295388592E1,2.653282136E-4,-8.939276449E-5,2.004475798E-3,2.023935116E-3
1.296390492E1,-3.975327127E-4,-9.802200366E-4,8.236300200E-4,1.340608066E-3
1.297392392E1,-1.468723174E-3,-2.530045109E-3,9.475332336E-4,3.075076461E-3
1.298394292E1,2.167823259E-3,1.679879846E-3,2.234196872E-4,2.751612316E-3
1.299396092E1,-1.268135384E-5,-2.735829912E-4,-6.244545220E-4,6.818738299E-4
1.300397992E1,1.262706239E-3,1.575828064E-4,6.647817791E-4,1.435685968E-3
1.301399892E1,-1.649168320E-3,1.267731190E-3,1.200704603E-3,2.401788929E-3
1.302401792E1,-1.473133452E-3,6.432199152E-4,1.139185508E-3,1.970177060E-3
1.303403692E1,4.634885117E-4,-5.240358878E-4,7.936632028E-5,7.040839616E-4
1.304405592E1,-2.631370910E-3,-1.317521092E-4,1.020527445E-3,2.825411076E-3
1.305407392E1,-2.423045225E-4,-1.760507934E-3,-1.802800223E-3,2.531439968E-3
1.306409292E1,6.980574690E-4,-9.333300404E-4,-2.720151679E-4,1.196821393E-3
1.307411192E1,1.751203090E-4,4.286888288E-4,-3.828492481E-5,4.646579065E-4
1.308413092E1,2.257204615E-4,-9.667361155E-6,1.257658005E-4,2.585734348E-4
1.309414992E1,9.114244021E-4,5.485515576E-4,2.668300876E-4,1.096723095E-3
1.310416892E1,-2.838023938E-4,-4.879548214E-5,-2.470633015E-3,2.487358497E-3
1.311418692E1,-1.231911592E-4,-1.139919041E-3,-1.210762653E-3,1.667494433E-3
1.312420592E1,1.016641967E-3,-2.879495965E-3,-3.761804663E-3,4.845227778E-3
1.313422492E1,1.990125049E-3,-1.335751032E-3,2.707564272E-3,3.616038277E-3
1.314424392E1,1.517946832E-3,5.601695739E-5,-2.127404558E-3,2.614029578E-3
1.315426292E1,-1.272233203E-5,1.657779561E-3,1.077492256E-3,1.977216350E-3
1.316428192E1,4.349551164E-4,2.713989234E-3,3.480523592E-4,2.770571053E-3
1.317430092E1,-4.601390101E-4,-1.430727541E-3,-6.664544926E-4,1.644040996E-3
1.318431892E1,1.405671239E-3,-2.106371336E-3,4.344962945E-4,2.569338215E-3
1.319433792E1,8.736737072E-5,-6.993741263E-4,2.414680086E-3,2.515439752E-3
1.320435692E1,1.306829043E-3,-5.803308450E-4,8.546002791E-4,1.665811416E-3
1.321437592E1,-1.169659663E-3,-4.961201921E-5,5.050025648E-4,1.274987322E-3
1.322439492E1,1.237571239E-3,-8.429677691E-4,-2.681131591E-4,1.521204095E-3
1.323441392E1,3.946642391E-4,-2.603555331E-3,-8.782678633E-4,2.775898893E-3
1.324443192E1,2.356614918E-3,-2.978602424E-6,1.049061888E-3,2.579568488E-3
1.325445092E1,1.446367241E-4,-2.093669958E-3,-4.045426613E-4,2.137294655E-3
1.326446992E1,8.186828345E-4,-9.580980986E-7,-7.899021730E-4,1.137623815E-3
1.327448892E1,1.033412293E-3,1.549876994E-3,-5.287546664E-4,1.936399018E-3
1.328450792E1,1.182549167E-3,8.143119048E-4,1.801511273E-3,2.303686020E-3
1.329452729E1,9.671081789E-4,-3.600300290E-3,1.202891464E-3,3.917193929E-3
1.330454629E1,-4.875105806E-4,-8.484558202E-4,-3.342850832E-4,1.034064970E-3
1.331456429E1,-7.964740507E-4,2.097312827E-3,-1.474092365E-3,2.684406882E-3
1.332458329E1,-1.134429593E-3,1.128987409E-3,-1.341466908E-3,2.088319070E-3
1.333460229E1,2.497196663E-3,1.011917600E-3,-9.878713172E-4,2.869818486E-3
1.334462129E1,1.046839170E-3,-2.799818758E-4,3.831239883E-4,1.149367691E-3
1.335464029E1,3.161676228E-2,-5.890453607E-2,-2.468046732E-4,6.685375785E-2
1.336465929E1,6.810286641E-2,-1.365274340E-1,1.455850620E-2,1.532634684E-1
1.337467829E1,8.224056661E-2,-9.419026226E-2,1.437816303E-2,1.258651972E-1
1.338469629E1,1.043919399E-1,-1.529209614E-1,1.216374431E-2,1.855544508E-1
1.339471529E1,1.207361817E-1,-1.197286695E-1,5.517217796E-3,1.701253055E-1
1.340473429E1,2.282543927E-1,-5.234042406E-1,1.578136114E-3,5.710118715E-1
1.341475329E1,3.410198987E-1,-6.063379645E-1,1.151652262E-2,6.957534972E-1
1.342477229E1,4.515727758E-1,-5.729832053E-1,-8.711705450E-4,7.295399128E-1
1.343479129E1,4.919898510E-1,-9.154547751E-2,-2.315338515E-2,5.009697268E-1
1.344480929E1,5.060021281E-1,1.507675499E-1,-3.889320046E-2,5.294163662E-1
1.345482829E1,5.267299414E-1,1.968444139E-2,-1.150178909E-1,5.395007170E-1
1.346484729E1,5.214907527E-1,-1.729168743E-2,-2.151721865E-1,5.644029389E-1
1.347486629E1,4.167781472E-1,2.150970697E-1,-2.786567211E-1,5.455459116E-1
1.348488529E1,2.380366325E-1,3.509268165E-1,-1.991400421E-1,4.684739324E-1
1.349490429E1,-1.125545241E-2,7.254229784E-1,-2.031533867E-1,7.534165391E-1
1.350492329E1,-2.800869048E-1,9.687477350E-1,-2.498902529E-1,1.038925400E0
1.351494129E1,-4.682351947E-1,6.606294513E-1,-2.640331388E-1,8.516976974E-1
1.352496029E1,-6.852524281E-1,6.067795157E-1,-2.801021338E-1,9.571883181E-1
1.353497929E1,-8.930991292E-1,6.491456032E-1,-3.156475127E-1,1.148324615E0
1.354499829E1,-1.133655310E0,9.303754568E-1,-3.182222545E-1,1.500679265E0
1.355501729E1,-1.356301308E0,1.401876450E0,-2.991842330E-1,1.973403664E0
1.356503629E1,-1.509071350E0,1.776718497E0,-3.113471568E-1,2.351799739E0
1.357505429E1,-3.920059800E-1,2.733345509E0,-1.790627986E-1,2.767112185E0
1.358507329E1,-1.064619899E0,2.146507978E0,-3.360140622E-1,2.419466363E0
1.359509229E1,-1.489507198E0,2.731427908E0,-4.004606009E-1,3.136829419E0
1.360511129E1,-1.166997790E0,1.135867000E0,-4.089182913E-1,1.679074701E0
1.361513029E1,-9.202894568E-1,1.292207956E0,-4.902977049E-1,1.660459553E0
1.362514929E1,-1.250698090E0,5.945449471E-1,-5.431891680E-1,1.487542899E0
1.363516829E1,-1.520034909E0,-7.786741853E-2,-5.024632812E-1,1.602822139E0
1.364518629E1,-1.455493808E0,1.024176702E-1,-5.093349814E-1,1.545436420E0
1.365520529E1,-1.718909502E0,-5.954754949E-1,-4.946188331E-1,1.885176048E0
1.366522429E1,-1.940969944E0,-1.433273673E0,-4.546293318E-1,2.455264869E0
1.367524329E1,-2.164546251E0,-1.555593848E0,-3.941068351E-1,2.694522758E0
1.368526229E1,-2.467635632E0,-1.949982405E0,-3.277115822E-1,3.162127744E0
1.369528129E1,-2.620698929E0,-2.466255188E0,-2.404975146E-1,3.606704394E0
1.370530029E1,-2.592431068E0,-2.642366648E0,-1.363703161E-1,3.704240436E0
1.371531829E1,-2.602116108E0,-2.983272552E0,-5.472447723E-2,3.959029948E0
1.372533729E1,-2.621141672E0,-3.179809809E0,-3.247243538E-2,4.120998489E0
1.373535629E1,-2.590708256E0,-3.105072498E0,-1.946647465E-2,4.043961354E0
1.374537529E1,-2.519497871E0,-3.080301762E0,8.572083898E-3,3.979472571E0
1.375539429E1,-2.438083172E0,-2.890195847E0,4.105811939E-2,3.781423985E0
1.376541329E1,-2.391041994E0,-2.553358078E0,1.303970516E-1,3.500531771E0
1.377543229E1,-2.401385069E0,-2.241856337E0,2.277511209E-1,3.293089834E0
1.378545029E1,-2.381861687E0,-1.910197854E0,3.115578890E-1,3.069069770E0
1.379546929E1,-2.332615376E0,-1.556056142E0,3.970423937E-1,2.831968903E0
1.380548829E1,-2.280625820E0,-1.210888028E0,4.668901861E-1,2.624021798E0
1.381550729E1,-2.225579500E0,-8.726610541E-1,5.241410732E-1,2.447338410E0
1.382552629E1,-2.151184797E0,-5.321300626E-1,5.563898683E-1,2.284803738E0
1.383554529E1,-2.053881884E0,-3.143582940E-1,5.639601946E-1,2.152975390E0
1.384556429E1,-1.970054984E0,-1.460108161E-1,5.453867912E-1,2.049361498E0
1.385558229E1,-1.882011414E0,-7.940559089E-2,5.015799403E-1,1.949321586E0
1.386560129E1,-1.786728859E0,-1.673072129E-1,4.562108815E-1,1.851626336E0
1.387562029E1,-1.707289457E0,-2.960174978E-1,4.157141447E-1,1.781932069E0
1.388563929E1,-1.648915887E0,-3.246627450E-1,3.850792646E-1,1.724127472E0
1.389565829E1,-1.577117085E0,-4.490821660E-1,3.518676758E-1,1.677135640E0
1.390567729E1,-1.477146745E0,-6.906029582E-1,2.985996604E-1,1.657726367E0
1.391569629E1,-1.362607241E0,-9.407116771E-1,2.415045649E-1,1.673308521E0
1.393029875E1,-6.690236181E-2,-1.278124154E-1,1.979954727E-2,1.456158014E-1
1.394031775E1,-7.454730570E-2,-1.568925977E-1,3.280170634E-2,1.767725656E-1
1.395033675E1,-7.990265638E-2,-1.787315905E-1,4.714788869E-2,2.013761141E-1
1.396035675E1,-9.523563087E-2,-1.831472069E-1,5.567298084E-2,2.138041290E-1
1.397037575E1,-1.049769372E-1,-1.731283963E-1,6.777597964E-2,2.135115509E-1
1.398039475E1,-1.230255887E-1,-1.468473971E-1,7.644009590E-2,2.062584344E-1
1.399041375E1,-1.428434998E-1,-1.195691675E-1,8.588259667E-2,2.051264772E-1
1.400043275E1,-1.613294929E-1,-1.121495292E-1,9.143122286E-2,2.167126916E-1
1.401045175E1,-1.863690615E-1,-1.350631118E-1,9.709629416E-2,2.498062481E-1
1.402047075E1,-2.112490833E-1,-1.666841060E-1,9.473159909E-2,2.852785345E-1
1.403048975E1,-2.292749584E-1,-2.050634474E-1,9.218881279E-2,3.211180487E-1
1.404050875E1,-2.421035171E-1,-2.466339022E-1,7.757060230E-2,3.542027569E-1
1.405052775E1,-2.538847923E-1,-2.833543718E-1,6.832357496E-2,3.865427514E-1
1.406054675E1,-2.657089531E-1,-2.973484993E-1,5.307519063E-2,4.022864075E-1
1.407056575E1,-2.813819349E-1,-2.953282297E-1,4.104755446E-2,4.099749483E-1
1.408058475E1,-2.821752429E-1,-2.804522514E-1,3.525041044E-2,3.993982029E-1
1.409060375E1,-2.841182649E-1,-2.531431317E-1,2.364222333E-2,3.812657712E-1
1.410062275E1,-2.844372392E-1,-2.130028307E-1,1.922176406E-2,3.558710794E-1
1.411064175E1,-2.774528265E-1,-1.683283150E-1,1.477161981E-2,3.248579587E-1
1.412066083E1,-2.645667493E-1,-1.142146140E-1,8.755491115E-3,2.883005403E-1
1.413067983E1,-2.535015643E-1,-5.634972453E-2,6.459579803E-3,2.597692451E-1
1.414069883E1,-2.395360321E-1,-1.072185859E-2,3.839804092E-3,2.398066159E-1
1.415071783E1,-2.232737094E-1,3.218991216E-3,2.932725474E-4,2.232971053E-1
1.416073683E1,-2.064377815E-1,-1.858915202E-2,-4.490852356E-3,2.073216871E-1
1.417075583E1,-1.901533604E-1,-5.226029456E-2,-1.142652333E-2,1.975348179E-1
1.418077483E1,-1.710857153E-1,-8.528835326E-2,-2.437181026E-2,1.927132853E-1
1.419079383E1,-1.556508392E-1,-1.047451422E-1,-3.227207810E-2,1.903686308E-1
1.420081283E1,-1.428034455E-1,-1.137239560E-1,-3.993842378E-2,1.868717205E-1
1.421083183E1,-1.257163435E-1,-1.159522235E-1,-4.385300353E-2,1.765576481E-1
1.422085083E1,-1.077301875E-1,-1.027584225E-1,-4.406135902E-2,1.552626486E-1
1.423086983E1,-8.790987730E-2,-7.639046758E-2,-4.707659036E-2,1.256178945E-1
1.424088883E1,-6.549123675E-2,-3.942510858E-2,-4.141199961E-2,8.693903030E-2
1.425090783E1,-4.366210476E-2,-9.750303812E-3,-4.162558541E-2,6.110758690E-2
1.426092683E1,-2.171263658E-2,1.532411575E-2,-4.539281875E-2,5.260014358E-2
1.427094583E1,-3.776247147E-3,3.966274485E-2,-4.722454026E-2,6.178633000E-2
1.428096483E1,8.242445067E-3,5.253710598E-2,-5.175738782E-2,7.420857497E-2
1.429098383E1,2.087008953E-2,3.608649597E-2,-5.460537225E-2,6.869892653E-2
1.430100283E1,3.297685832E-2,1.605929248E-2,-5.517359078E-2,6.625329561E-2
1.431102183E1,3.763153031E-2,-9.117017034E-4,-5.742555857E-2,6.866336760E-2
1.432104083E1,4.926825687E-2,1.916097710E-3,-4.929534346E-2,6.972132710E-2
1.433105983E1,5.584147200E-2,1.164835319E-2,-4.719650745E-2,7.403691271E-2
1.434107883E1,6.248456612E-2,2.857470885E-2,-3.561732173E-2,7.739139872E-2
1.435109783E1,7.341152430E-2,4.225989431E-2,-2.828563936E-2,8.930413182E-2
1.436111683E1,7.868301868E-2,5.704633519E-2,-2.864683792E-2,1.013209905E-1
1.437113583E1,8.432119340E-2,7.553958893E-2,-2.401586808E-2,1.157283676E-1
1.438115483E1,8.346259594E-2,8.217646927E-2,-2.196407132E-2,1.191696163E-1
1.439117383E1,7.995387912E-2,8.845274150E-2,-1.489577536E-2,1.201598701E-1
1.440119283E1,7.170115411E-2,8.463763446E-2,-8.707968518E-3,1.112673060E-1
1.441121183E1,6.491356343E-2,7.070504129E-2,-5.019490141E-3,9.611539347E-2
1.442123083E1,5.625197291E-2,5.460097641E-2,-2.545749536E-3,7.843488970E-2
1.443124983E1,4.347385839E-2,3.220751882E-2,-1.931129373E-4,5.410487893E-2
1.444126883E1,2.260232717E-2,9.196148254E-3,7.117280038E-4,2.441190064E-2
1.445128783E1,3.129560500E-3,-1.389745343E-2,-3.797003534E-3,1.474281509E-2
1.446130683E1,-1.633816585E-2,-2.701672912E-2,-8.347715251E-3,3.265767391E-2
1.447132583E1,-3.815158457E-2,-3.117525578E-2,-1.436299738E-2,5.131993444E-2
1.448134483E1,-5.897774920E-2,-3.313932195E-2,-1.731147990E-2,6.983034366E-2
1.449136383E1,-8.515530080E-2,-2.519591525E-2,-2.345778979E-2,9.185057050E-2
1.450138283E1,-1.131842658E-1,-1.461197902E-2,-3.122942708E-2,1.183193351E-1
1.451140183E1,-1.448013037E-1,-3.590753535E-3,-3.660741448E-2,1.494001803E-1
1.452142083E1,-1.665459126E-1,9.337937459E-3,-3.948537260E-2,1.714171308E-1
1.453143983E1,-1.916105151E-1,2.306706458E-2,-4.870336875E-2,1.990444601E-1
1.454145883E1,-2.103682607E-1,3.993922845E-2,-5.869182572E-2,2.220240471E-1
1.455147783E1,-2.285669744E-1,4.794842005E-2,-6.573135406E-2,2.426160005E-1
1.456149683E1,-2.424856871E-1,4.824644327E-2,-7.678153366E-2,2.588869090E-1
1.457151583E1,-2.622474134E-1,1.861371659E-2,-8.529458940E-2,2.763970753E-1
1.458153483E1,-2.769793272E-1,-5.146854371E-2,-9.489115328E-2,2.972724166E-1
1.459155483E1,-2.870926857E-1,-1.485828459E-1,-1.051661596E-1,3.399396908E-1
1.460157283E1,-2.960363925E-1,-2.495091856E-1,-1.162606254E-1,4.042386824E-1
1.461159283E1,-3.049851358E-1,-3.321513534E-1,-1.189261824E-1,4.663516822E-1
1.462161183E1,-3.091782331E-1,-3.851157129E-1,-1.237096339E-1,5.091260803E-1
1.463163083E1,-3.111606836E-1,-4.057908952E-1,-1.231988445E-1,5.259897118E-1
1.464164983E1,-3.029700518E-1,-3.929346502E-1,-1.239410341E-1,5.114194673E-1
1.465166883E1,-2.985351086E-1,-3.535076082E-1,-1.250331998E-1,4.792954633E-1
1.466168783E1,-2.877461314E-1,-2.948619127E-1,-1.264030635E-1,4.309514105E-1
1.467170683E1,-2.868528962E-1,-2.263813764E-1,-1.251223385E-1,3.862495453E-1
1.468172583E1,-2.811961770E-1,-1.736586243E-1,-1.231964678E-1,3.527123154E-1
1.469174483E1,-2.819791436E-1,-1.222449765E-1,-1.209764555E-1,3.302898341E-1
1.470176383E1,-2.786428332E-1,-7.205963135E-2,-1.191206872E-1,3.114870095E-1
1.471178283E1,-2.714408338E-1,-2.780988254E-2,-1.148495153E-1,2.960471702E-1
1.472180183E1,-2.628964484E-1,2.763248235E-2,-1.151387841E-1,2.883314694E-1
1.473182083E1,-2.487502694E-1,9.927124530E-2,-1.135360897E-1,2.908984708E-1
1.474183983E1,-2.370961607E-1,1.754764020E-1,-1.121513695E-1,3.155700980E-1
1.475185883E1,-2.267151624E-1,2.427015156E-1,-1.160283983E-1,3.518044623E-1
1.476187783E1,-2.128551900E-1,2.817121148E-1,-1.172005311E-1,3.720282409E-1
1.477189683E1,-1.993247420E-1,2.786534727E-1,-1.182234511E-1,3.624291586E-1
1.478191583E1,-1.815031767E-1,2.293029130E-1,-1.215248033E-1,3.166883434E-1
1.479193483E1,-1.688472927E-1,1.513399333E-1,-1.170112714E-1,2.551564643E-1
1.480195383E1,-1.533776373E-1,6.193589419E-2,-1.131551564E-1,2.004116863E-1
1.481197283E1,-1.464454383E-1,-2.509514429E-2,-1.061017737E-1,1.825749683E-1
1.482199183E1,-1.340679377E-1,-1.113222465E-1,-1.019274667E-1,2.018813091E-1
1.483201083E1,-1.240502000E-1,-1.795425713E-1,-9.913993627E-2,2.396929577E-1
1.484202983E1,-1.112070084E-1,-2.128109634E-1,-9.708642215E-2,2.590005371E-1
1.485204883E1,-9.848242253E-2,-2.112708539E-1,-9.425681084E-2,2.514329088E-1
1.486206783E1,-8.466139436E-2,-1.783331186E-1,-9.222455323E-2,2.178890109E-1
1.487208683E1,-7.503273338E-2,-1.275341213E-1,-8.888894320E-2,1.726154900E-1
1.488210583E1,-6.341622025E-2,-7.032029331E-2,-8.449799567E-2,1.269112758E-1
1.489212483E1,-5.937141180E-2,-9.611410089E-3,-7.390607148E-2,9.528615401E-2
1.490214383E1,-5.622432008E-2,4.890865833E-2,-6.515003741E-2,9.898362694E-2
1.491216283E1,-5.320801958E-2,1.048400998E-1,-6.153346226E-2,1.326985563E-1
1.492218183E1,-4.633862525E-2,1.601593196E-1,-5.136611685E-2,1.744613247E-1
1.493220083E1,-4.468453303E-2,2.047520876E-1,-4.714553803E-2,2.148088141E-1
1.494221983E1,-4.397217557E-2,2.432610840E-1,-4.524948075E-2,2.513106100E-1
1.495223883E1,-3.396481276E-2,2.732203305E-1,-4.461378232E-2,2.789145874E-1
1.496225783E1,-2.346842363E-2,3.120018840E-1,-4.462378845E-2,3.160494028E-1
1.497227683E1,7.753977552E-4,3.415563107E-1,-4.242321849E-2,3.441817021E-1
1.498229583E1,2.022549510E-2,3.748513758E-1,-4.114278778E-2,3.776444804E-1
1.499231483E1,5.281726271E-2,3.941209614E-1,-3.801304102E-2,3.994571151E-1
1.500233383E1,8.743450791E-2,4.001355767E-1,-3.289341182E-2,4.108956674E-1
1.501235283E1,1.313369870E-1,3.983099759E-1,-3.178340569E-2,4.206072110E-1
1.502237183E1,1.752507538E-1,3.999719024E-1,-2.311166935E-2,4.372922348E-1
1.503239083E1,2.140194625E-1,4.082258344E-1,-1.594430394E-2,4.612015644E-1
1.504240983E1,2.565003037E-1,4.245731235E-1,-6.144846324E-3,4.960771131E-1
1.505242883E1,2.985633314E-1,4.310797453E-1,7.267365232E-3,5.244259950E-1
1.506244783E1,3.400063217E-1,4.093336463E-1,2.269610018E-2,5.326100316E-1
1.507246683E1,3.820781708E-1,3.505808711E-1,3.875496238E-2,5.199929066E-1
1.508248583E1,4.214796424E-1,2.570677102E-1,4.990065470E-2,4.962045666E-1
1.509250483E1,4.606635571E-1,1.619686335E-1,6.390728056E-2,4.924722241E-1
1.510252383E1,5.051329732E-1,7.198971510E-2,7.873593271E-2,5.162762698E-1
1.511254383E1,5.498394966E-1,-1.598035917E-2,8.784527332E-2,5.570418619E-1
1.512256250E1,5.947756767E-1,-8.347533643E-2,9.923966229E-2,6.087485096E-1
1.513258150E1,6.404752731E-1,-1.226008981E-1,1.099977717E-1,6.613161615E-1
1.514260050E1,6.831122041E-1,-1.169017628E-1,1.175813824E-1,7.029464325E-1
1.515261950E1,7.271006703E-1,-6.957899034E-2,1.345928460E-1,7.427192302E-1
1.516263850E1,7.693586946E-1,-2.526152320E-2,1.472027600E-1,7.837216330E-1
1.517265750E1,8.093271852E-1,-6.492095999E-3,1.597574353E-1,8.249697437E-1
1.518267650E1,8.499040604E-1,-3.148077521E-3,1.749447882E-1,8.677283568E-1
1.519269550E1,8.885737062E-1,6.346766604E-4,1.878046691E-1,9.082038471E-1
1.520271450E1,9.308570623E-1,7.654578891E-3,2.034997642E-1,9.528722984E-1
1.521273350E1,9.750835896E-1,1.032895176E-3,2.114026994E-1,9.977375280E-1
1.522275250E1,1.031734347E0,-2.009691671E-2,2.189320773E-1,1.054898528E0
1.523277150E1,1.089082360E0,-6.134448946E-2,2.218157351E-1,1.113133305E0
1.524279050E1,1.150758862E0,-1.440213770E-1,2.263859510E-1,1.181625455E0
1.525280950E1,1.214346051E0,-2.675899267E-1,2.210966498E-1,1.262982355E0
1.526282850E1,1.277808666E0,-4.173192680E-1,2.109890431E-1,1.360686127E0
1.527284750E1,1.361863613E0,-5.471547842E-1,1.824844331E-1,1.478969718E0
1.528286650E1,1.485040903E0,-6.315285563E-1,2.279967666E-1,1.629772170E0
1.529288550E1,1.500540257E0,-5.749598742E-1,1.790489256E-1,1.616866858E0
1.530290450E1,1.582791448E0,-6.017037630E-1,1.742983162E-1,1.702250301E0
1.531292350E1,1.612734199E0,-5.667393804E-1,1.674896777E-1,1.717602373E0
1.532294250E1,1.641427994E0,-4.831413031E-1,1.564071476E-1,1.718189330E0
1.533296150E1,1.668408036E0,-4.149742424E-1,1.428407431E-1,1.725164478E0
1.534298050E1,1.678644300E0,-3.176652789E-1,1.320063770E-1,1.713529573E0
1.535299950E1,1.680504799E0,-2.576187253E-1,1.329699159E-1,1.705328351E0
1.536301850E1,1.675226927E0,-2.540749311E-1,1.337113082E-1,1.699652329E0
1.537303750E1,1.655678272E0,-2.813683450E-1,1.346641779E-1,1.684806555E0
1.538305650E1,1.640270472E0,-3.286134005E-1,1.308488250E-1,1.677973600E0
1.539307550E1,1.625317693E0,-3.433638513E-1,1.290320158E-1,1.666194946E0
1.540309450E1,1.614468098E0,-3.258677423E-1,1.347291321E-1,1.652528052E0
1.541311350E1,1.604585171E0,-2.864289880E-1,1.320497245E-1,1.635289658E0
1.542313250E1,1.580733895E0,-2.264285088E-1,1.381959468E-1,1.602837371E0
1.543315150E1,1.554678321E0,-1.849095672E-1,1.406306028E-1,1.571939311E0
1.544317050E1,1.528580070E0,-1.770859659E-1,1.369252652E-1,1.544883490E0
1.545318950E1,1.502831817E0,-1.899844557E-1,1.302290112E-1,1.520380596E0
1.546320850E1,1.475863934E0,-2.154170722E-1,1.223668456E-1,1.496513451E0
1.547322750E1,1.443438172E0,-2.432673424E-1,1.174013764E-1,1.468494413E0
1.548324650E1,1.411759853E0,-2.679895163E-1,1.026872247E-1,1.440634905E0
1.549326550E1,1.356956244E0,-2.867189944E-1,8.641344309E-2,1.389606171E0
1.550328450E1,1.303302050E0,-2.755702436E-1,6.757812947E-2,1.333829822E0
1.551330450E1,1.249159455E0,-2.509682477E-1,5.429321155E-2,1.275277287E0
1.552332350E1,1.189638376E0,-1.997200996E-1,3.362092003E-2,1.206755133E0
1.553334250E1,1.140372872E0,-1.129231453E-1,1.906940900E-2,1.146108881E0
1.554336150E1,1.094344497E0,-3.590126522E-3,7.808002643E-3,1.094378240E0
1.555338050E1,1.044951916E0,1.062964275E-1,-3.097109264E-3,1.050349003E0
1.556339950E1,9.982951283E-1,1.907635629E-1,-6.546634715E-3,1.016379240E0
1.557341850E1,9.596710205E-1,2.210650146E-1,-1.529432088E-2,9.849223952E-1
1.558343750E1,9.153549075E-1,2.036918551E-1,-2.107480913E-2,9.379814103E-1
1.559345650E1,8.753595948E-1,1.570372581E-1,-2.154885232E-2,8.895951179E-1
1.560347550E1,8.374956846E-1,8.762557805E-2,-2.475888468E-2,8.424311640E-1
1.561349450E1,7.989304066E-1,2.959103882E-2,-3.055578656E-2,8.000619227E-1
1.562351350E1,7.522025704E-1,1.291805878E-2,-2.630129270E-2,7.527731008E-1
1.563353250E1,7.148195505E-1,2.593825385E-2,-2.183890156E-2,7.156233090E-1
1.564355150E1,6.706410646E-1,5.145307630E-2,-1.407468412E-2,6.727592091E-1
1.565357050E1,6.289655566E-1,8.243549615E-2,-1.039872319E-2,6.344299929E-1
1.566358950E1,5.829200745E-1,1.098163351E-1,-3.919215873E-3,5.931869865E-1
1.567360850E1,5.363219380E-1,1.361451447E-1,-6.147482432E-3,5.533665270E-1
1.568362750E1,4.898322821E-1,1.771824062E-1,-2.120397286E-3,5.208970778E-1
1.569364650E1,4.432461262E-1,2.221940905E-1,3.819517093E-3,4.958345802E-1
1.570366550E1,3.947140276E-1,2.574236989E-1,6.970474496E-3,4.712904751E-1
1.571368450E1,3.560478687E-1,2.671106756E-1,1.029729564E-2,4.452238000E-1
1.572370350E1,3.184276223E-1,2.580017149E-1,8.059032261E-3,4.099097261E-1
1.573372250E1,2.812384665E-1,2.474572062E-1,7.153290790E-3,3.746749438E-1
1.574374150E1,2.476017624E-1,2.466730326E-1,1.120640058E-2,3.496852888E-1
1.575376050E1,2.082120180E-1,2.525127828E-1,1.685097069E-2,3.277177217E-1
1.576377950E1,1.757328659E-1,2.469696552E-1,2.043307573E-2,3.037985538E-1
1.577379850E1,1.476178765E-1,2.289994508E-1,2.008686401E-2,2.731945608E-1
1.578381750E1,1.196040139E-1,2.071489245E-1,1.609014161E-2,2.397387947E-1
1.579383650E1,9.281154722E-2,1.998694390E-1,1.484990772E-2,2.208671449E-1
1.580385550E1,5.985279381E-2,2.023067623E-1,1.850315183E-2,2.117846775E-1
1.581387450E1,2.437442914E-2,2.074461430E-1,2.553442866E-2,2.104281875E-1
1.582389350E1,-6.316976622E-3,1.872422546E-1,3.006452136E-2,1.897457287E-1
1.583391250E1,-4.085098580E-2,1.395666003E-1,3.105734847E-2,1.487017077E-1
1.584393150E1,-6.774283201E-2,7.565337420E-2,3.298307210E-2,1.067726901E-1
1.585395050E1,-9.833695740E-2,-2.873922931E-3,3.211248666E-2,1.034873346E-1
1.586396950E1,-1.279432327E-1,-7.748550177E-2,2.816117927E-2,1.522055380E-1
1.587398950E1,-1.527537853E-1,-1.334574223E-1,2.747727931E-2,2.046939260E-1
1.588400850E1,-1.754384786E-1,-1.473467499E-1,2.884670906E-2,2.309152596E-1
1.589402750E1,-2.047311217E-1,-1.250395924E-1,3.216128051E-2,2.420414836E-1
1.590404650E1,-2.328641415E-1,-7.235525548E-2,3.333523870E-2,2.461142611E-1
1.591406550E1,-2.510420680E-1,-1.160136331E-2,3.848392516E-2,2.542395013E-1
1.592408450E1,-2.777697742E-1,3.263670206E-2,4.155526310E-2,2.827508473E-1
1.593410350E1,-3.005762994E-1,3.821016476E-2,4.441576451E-2,3.062333891E-1
1.594412250E1,-3.188281357E-1,2.146595903E-2,3.989740461E-2,3.220310085E-1
1.595414150E1,-3.356206715E-1,2.741006669E-3,3.969740123E-2,3.379713478E-1
1.596416050E1,-3.626523912E-1,-9.864112362E-3,3.695590422E-2,3.646639500E-1
1.597417950E1,-3.918012083E-1,-7.419330999E-3,3.203118593E-2,3.931783694E-1
1.598419850E1,-4.295397997E-1,1.776488684E-2,2.287854068E-2,4.305153404E-1
1.599421750E1,-4.751392305E-1,5.963617191E-2,1.950884238E-2,4.792643908E-1
1.600423650E1,-5.242468119E-1,8.261609823E-2,1.523058396E-2,5.309351280E-1
