"Time (s)","Gyroscope x (rad/s)","Gyroscope y (rad/s)","Gyroscope z (rad/s)","Absolute (rad/s)"
4.927583330E-3,-3.472145647E-2,1.434093118E-1,-9.699204564E-2,1.765765193E-1
1.494658337E-2,-1.774367839E-1,8.651061356E-2,-4.351897165E-2,2.021430173E-1
2.496558335E-2,-2.877713442E-1,-6.858606637E-2,6.826156750E-4,2.958324881E-1
3.498458333E-2,-3.189598918E-1,-2.399921715E-1,9.890761226E-3,3.992862158E-1
4.500358336E-2,-2.973805964E-1,-2.997786701E-1,-1.009900495E-2,4.223795213E-1
5.502258334E-2,-2.457158118E-1,-2.294046730E-1,-4.491531104E-2,3.391462064E-1
6.504158332E-2,-1.991699189E-1,-1.060468629E-1,-7.677977532E-2,2.383479130E-1
7.506058336E-2,-1.706301421E-1,5.740658380E-3,-9.427061677E-2,1.950244850E-1
8.507958334E-2,-1.573473811E-1,7.351174951E-2,-8.251654357E-2,1.922788486E-1
9.509958333E-2,-1.368162781E-1,9.193044156E-2,-5.881121755E-2,1.750104550E-1
1.051185834E-1,-1.203789040E-1,7.542441785E-2,-3.787858412E-2,1.470194221E-1
1.151375833E-1,-1.109571755E-1,6.046675146E-3,-1.736798137E-2,1.124709022E-1
1.251565833E-1,-9.383373708E-2,-5.949181691E-2,-5.178703461E-3,1.112243924E-1
1.351755834E-1,-7.007594407E-2,-8.673302829E-2,-7.267687004E-3,1.117411089E-1
1.451945833E-1,-4.337229952E-2,-1.034501940E-1,-8.113351651E-3,1.124674419E-1
1.552135833E-1,-2.306170575E-2,-1.040075943E-1,-5.405982956E-3,1.066707392E-1
1.652325834E-1,-1.227022614E-3,-9.497126937E-2,6.041546818E-3,9.517115045E-2
1.752515833E-1,9.205112234E-3,-6.463653594E-2,5.042328499E-3,6.548313483E-2
1.852705833E-1,-7.612630725E-6,-4.150648788E-2,-9.538709186E-3,4.258844405E-2
1.952895834E-1,-9.995531291E-3,-2.658745833E-2,-1.705388352E-2,3.313062827E-2
2.053085833E-1,-2.159067616E-2,-9.449201636E-3,-1.916806400E-2,3.037860079E-2
2.153275834E-1,-2.169640362E-2,4.865821917E-3,-1.284438837E-2,2.567856043E-2
2.253457500E-1,-1.566736773E-2,1.365895569E-2,-5.610739812E-3,2.152937257E-2
2.353647500E-1,-2.213078085E-3,4.173841327E-3,-1.306093391E-2,1.388908423E-2
2.453837500E-1,1.899057999E-2,6.654917262E-3,-2.940589003E-2,3.563195786E-2
2.554027500E-1,4.592099786E-2,2.334867604E-2,-4.739021882E-2,6.999808253E-2
2.654217500E-1,8.156980574E-2,5.281415582E-2,-5.777281895E-2,1.130516115E-1
2.754407500E-1,1.096003726E-1,8.758545667E-2,-6.452073157E-2,1.544227273E-1
2.854597500E-1,1.223647222E-1,9.285021573E-2,-8.282092959E-2,1.745095819E-1
2.954787500E-1,1.221082583E-1,8.054534346E-2,-8.680048585E-2,1.700949836E-1
3.054977500E-1,1.088608056E-1,7.247018069E-2,-7.341362536E-2,1.499738727E-1
3.155167500E-1,9.401155263E-2,4.851451516E-2,-5.237678066E-2,1.180472675E-1
3.255357500E-1,7.972943783E-2,2.038616873E-2,-3.867959976E-2,9.093124089E-2
3.355547500E-1,7.552830130E-2,-1.747492701E-2,-2.873615548E-2,8.267807450E-2
3.455737500E-1,8.967702836E-2,-3.503279388E-2,-2.603671886E-2,9.973553424E-2
3.555927500E-1,1.097290367E-1,-4.353520274E-2,-2.113783360E-2,1.199274088E-1
3.656117500E-1,1.327468902E-1,-4.268597066E-2,-2.667304315E-2,1.419692931E-1
3.756307500E-1,1.463612467E-1,-2.874831855E-2,-2.192702331E-2,1.507609854E-1
3.856497500E-1,1.385497749E-1,-1.281433646E-2,-8.201468736E-3,1.393826081E-1
3.956687500E-1,1.207385585E-1,-3.574006259E-4,1.523301750E-2,1.216962286E-1
4.056877500E-1,9.038919955E-2,1.398074534E-2,1.600689068E-2,9.285412853E-2
4.157077500E-1,5.376300588E-2,2.249753475E-2,6.078359205E-3,5.859647022E-2
4.257257500E-1,3.929808363E-2,2.549285814E-2,1.227277610E-2,4.842361229E-2
4.357457500E-1,4.506249353E-2,6.700141728E-2,3.241879120E-2,8.701032274E-2
4.457647500E-1,9.768367559E-2,8.877798915E-2,6.199550629E-2,1.458323511E-1
4.557837500E-1,1.337236911E-1,1.262888759E-1,8.754054457E-2,2.037013812E-1
4.658027500E-1,1.319796592E-1,1.512315273E-1,9.389994293E-2,2.216005519E-1
4.758217500E-1,1.321756691E-1,1.799571812E-1,9.770373255E-2,2.437232322E-1
4.858407500E-1,1.309073120E-1,2.663147449E-1,1.646964401E-1,3.393894299E-1
4.958597500E-1,6.556585431E-2,1.806819625E-2,1.904300302E-1,2.022101317E-1
5.058787500E-1,4.303553328E-2,1.894139871E-2,2.577792108E-1,2.620323553E-1
5.158977500E-1,3.310487419E-2,5.054779351E-2,3.099318743E-1,3.157669692E-1
5.259167500E-1,-8.406762034E-3,9.870430455E-3,3.101333678E-1,3.104042604E-1
5.359357500E-1,-5.768429488E-2,-7.401301712E-2,2.913021445E-1,3.060430427E-1
5.459547500E-1,-1.013049409E-1,-1.231568530E-1,2.797698975E-1,3.220271681E-1
5.559737500E-1,-1.495140195E-1,-1.578362882E-1,2.834479809E-1,3.572247105E-1
5.659927500E-1,-1.924238950E-1,-2.248496115E-1,2.982797325E-1,4.201846046E-1
5.760117500E-1,-2.101746649E-1,-2.698692977E-1,3.221224844E-1,4.698571300E-1
5.860307500E-1,-2.082378119E-1,-2.705779374E-1,3.288309574E-1,4.740308060E-1
5.960497500E-1,-1.919328719E-1,-2.423827946E-1,3.275712729E-1,4.504337745E-1
6.060687500E-1,-1.690084040E-1,-1.452757716E-1,3.341620564E-1,4.016630060E-1
6.160877500E-1,-1.421690732E-1,-4.251166247E-4,3.487484455E-1,3.766134681E-1
6.261067500E-1,-1.181935146E-1,1.516534090E-1,3.457359374E-1,3.956030861E-1
6.361257500E-1,-1.092426330E-1,2.558093667E-1,3.428176343E-1,4.414706280E-1
6.461447500E-1,-1.016912460E-1,2.854684889E-1,3.384309709E-1,4.542784276E-1
6.561637500E-1,-8.902791888E-2,2.546735406E-1,3.363121450E-1,4.311501380E-1
6.661827500E-1,-8.642233163E-2,1.937859356E-1,3.362190127E-1,3.975739337E-1
6.762017500E-1,-9.611916542E-2,1.143430322E-1,3.361966312E-1,3.678877516E-1
6.862207500E-1,-1.204734743E-1,-8.088804781E-3,3.237331808E-1,3.455176683E-1
6.962397500E-1,-1.533150375E-1,-1.878732145E-1,2.992094755E-1,3.851339451E-1
7.062587500E-1,-1.932976544E-1,-4.605226517E-1,2.806120217E-1,5.728771270E-1
7.162777500E-1,-2.044302076E-1,-7.183040977E-1,2.762084901E-1,7.962685580E-1
7.262967500E-1,-1.126419455E-1,-7.844048738E-1,2.842022777E-1,8.418730003E-1
7.363167500E-1,4.678872973E-2,-7.284233570E-1,2.605747283E-1,7.750412642E-1
7.463357500E-1,2.175845951E-1,-6.606900096E-1,1.805324107E-1,7.186419805E-1
7.563547500E-1,3.938682675E-1,-5.381926298E-1,8.331637830E-2,6.721050051E-1
7.663737500E-1,5.517032743E-1,-3.296311796E-1,2.373308409E-3,6.426809861E-1
7.763927500E-1,6.601946354E-1,-8.335962147E-2,-6.132497638E-2,6.682563399E-1
7.864117500E-1,7.063386440E-1,1.213013530E-1,-1.108151376E-1,7.251953482E-1
7.964307500E-1,6.823933721E-1,2.018481344E-1,-1.413038075E-1,7.255137143E-1
8.064497500E-1,5.929763913E-1,2.115297467E-1,-1.515851617E-1,6.475676765E-1
8.164687500E-1,4.701921344E-1,1.655942202E-1,-1.329643428E-1,5.159279072E-1
8.264877500E-1,3.412751555E-1,5.870879441E-2,-1.085100248E-1,3.628910027E-1
8.365067500E-1,2.085091025E-1,-2.763115056E-2,-7.476138324E-2,2.232236339E-1
8.465257500E-1,9.876119345E-2,-4.545759410E-2,-2.954596281E-2,1.126637924E-1
8.565447500E-1,1.304456964E-5,-7.610612083E-3,-3.490393749E-3,8.372839122E-3
8.665637500E-1,-9.046470374E-2,5.633998662E-2,1.568455249E-2,1.077221514E-1
8.765827500E-1,-1.319807172E-1,1.390220821E-1,3.168482333E-2,1.942935332E-1
8.866017500E-1,-1.571701765E-1,7.818911225E-2,3.419471532E-2,1.788442904E-1
8.966207500E-1,-2.189046592E-1,-5.809336528E-2,2.613678947E-2,2.279851325E-1
9.066397500E-1,-2.694002092E-1,-1.681863964E-1,2.016815543E-2,3.182293059E-1
9.166587500E-1,-2.816547453E-1,-1.873739362E-1,3.992241994E-2,3.406349764E-1
9.266777500E-1,-2.791727483E-1,-1.842793375E-1,6.944885850E-2,3.416422714E-1
9.366967500E-1,-2.709875405E-1,-2.174506038E-1,8.858393878E-2,3.585611892E-1
9.467157500E-1,-2.466191202E-1,-2.271812856E-1,8.408892900E-2,3.456924572E-1
9.567347500E-1,-2.151152492E-1,-2.328892350E-1,7.412098348E-2,3.255854518E-1
9.667537500E-1,-2.022964358E-1,-2.599759102E-1,9.871008992E-2,3.438822526E-1
9.767727500E-1,-1.978228539E-1,-2.469631881E-1,1.125585288E-1,3.358483589E-1
9.867917500E-1,-1.925037503E-1,-2.202091515E-1,1.021594182E-1,3.098165764E-1
9.968107500E-1,-1.847235858E-1,-2.188064754E-1,6.265541166E-2,2.931292845E-1
1.006829750E0,-1.701048315E-1,-2.720339894E-1,1.388236997E-4,3.208397799E-1
1.016848750E0,-1.450974792E-1,-3.333450258E-1,-6.204465404E-2,3.688112306E-1
1.026867750E0,-8.732561022E-2,-3.405759931E-1,-1.142687947E-1,3.696959922E-1
1.036886750E0,-6.553996354E-5,-2.686240375E-1,-1.590202898E-1,3.121639479E-1
1.046905750E0,7.924333215E-2,-2.175893635E-1,-2.297176570E-1,3.261822170E-1
1.056924750E0,1.605195552E-1,-1.572876722E-1,-2.801808119E-1,3.591757603E-1
1.066944750E0,2.194730788E-1,-8.874934912E-2,-2.778960168E-1,3.650631116E-1
1.076963750E0,2.252308279E-1,-3.559691459E-2,-2.417891622E-1,3.323523208E-1
1.086982750E0,2.223456651E-1,-1.577229053E-2,-1.830437332E-1,2.884291390E-1
1.097001750E0,2.324845940E-1,-4.334532842E-2,-1.243393943E-1,2.671856824E-1
1.107020750E0,2.408324778E-1,-8.072973788E-2,-6.374727935E-2,2.618802944E-1
1.117039750E0,2.635841370E-1,-6.891861558E-2,6.067748647E-3,2.725127344E-1
1.127058750E0,3.083994687E-1,1.266382355E-2,6.047243625E-2,3.145274555E-1
1.137077750E0,3.496411741E-1,1.134618074E-1,9.040104598E-2,3.785431038E-1
1.147096750E0,3.755854964E-1,2.430528551E-1,8.078353107E-2,4.546043713E-1
1.157115750E0,3.675984144E-1,2.733172774E-1,4.281910509E-2,4.600699992E-1
1.167134750E0,3.123237491E-1,2.037440687E-1,-4.319353029E-3,3.729295196E-1
1.177153750E0,2.257292122E-1,1.312546879E-1,-5.472340435E-2,2.667885329E-1
1.187172750E0,1.739134490E-1,1.170280427E-1,-8.391834795E-2,2.257957919E-1
1.197191750E0,1.350680441E-1,1.224441081E-1,-1.102077439E-1,2.130297701E-1
1.207210750E0,8.960267529E-3,2.215383053E-1,-1.222059429E-1,2.531675326E-1
1.217229750E0,-7.580202073E-2,1.756312549E-1,-6.660975050E-3,1.914070339E-1
1.227249583E0,-1.024019718E-1,1.702255011E-1,2.639974058E-1,3.303899443E-1
1.237268583E0,-8.768321574E-2,1.833612770E-1,3.172952533E-1,3.768102732E-1
1.247287583E0,-6.335896999E-2,1.049213484E-1,3.675816953E-1,3.874779364E-1
1.257306583E0,8.196435869E-3,-4.970365390E-2,3.649166524E-1,3.683772496E-1
1.267325583E0,1.037569568E-1,-1.083963662E-1,3.408735096E-1,3.724379517E-1
1.277344583E0,1.615808457E-1,-2.780245431E-2,3.285374939E-1,3.671760219E-1
1.287363583E0,1.860395521E-1,7.106611878E-2,2.745781541E-1,3.391965078E-1
1.297382583E0,2.083773464E-1,8.814150840E-2,2.070595622E-1,3.066980703E-1
1.307401583E0,2.529832721E-1,3.370579705E-2,1.656973511E-1,3.042897121E-1
1.317420583E0,2.987009585E-1,-6.745753810E-3,1.387970299E-1,3.294425341E-1
1.327439583E0,3.489055932E-1,-1.658918895E-2,1.561922431E-1,3.826308024E-1
1.337458583E0,3.734479547E-1,5.170518160E-2,1.821506023E-1,4.187071083E-1
1.347477583E0,4.058893621E-1,8.383121341E-2,2.155294269E-1,4.671474933E-1
1.357496583E0,4.278354049E-1,6.839499623E-2,2.361305654E-1,4.934355612E-1
1.367515583E0,4.165878594E-1,7.618827512E-4,2.112621665E-1,4.670949883E-1
1.377534583E0,3.694214225E-1,-1.024864763E-1,1.545735896E-1,4.133626251E-1
1.387554583E0,3.002745211E-1,-1.824790239E-1,8.680952340E-2,3.619382206E-1
1.397573583E0,2.475708127E-1,-2.896875143E-1,2.540368959E-2,3.819103438E-1
1.407592583E0,2.041163892E-1,-3.700048029E-1,-2.222643234E-4,4.225720103E-1
1.417611583E0,1.508710086E-1,-3.532937169E-1,1.086687203E-2,3.843131543E-1
1.427630583E0,1.026044488E-1,-3.174062371E-1,4.204456508E-2,3.362173965E-1
1.437649583E0,3.322803974E-2,-2.302740067E-1,7.924678922E-2,2.457850166E-1
1.447668583E0,-5.222805589E-2,-1.316322833E-1,1.029405966E-1,1.750759672E-1
1.457687583E0,-1.357732862E-1,-1.786656864E-2,1.200838909E-1,1.821365981E-1
1.467706583E0,-2.322727442E-1,5.745524913E-2,1.212832406E-1,2.682561421E-1
1.477725583E0,-4.119186699E-1,2.375704348E-1,8.981666714E-2,4.839253412E-1
1.487744583E0,-5.118135214E-1,2.211686075E-1,6.815644354E-2,5.617062706E-1
1.497763583E0,-5.408532023E-1,1.056340188E-1,5.751977861E-2,5.540661128E-1
1.507782583E0,-5.475416780E-1,1.998800971E-2,5.921170488E-2,5.510965756E-1
1.517801583E0,-5.513119102E-1,-4.162422195E-2,4.625649005E-2,5.548126359E-1
1.527820583E0,-5.270292759E-1,-1.082474291E-1,3.234591335E-2,5.390024320E-1
1.537839583E0,-4.775496125E-1,-1.755723953E-1,3.154510260E-2,5.097787676E-1
1.547858583E0,-4.173052609E-1,-1.767726839E-1,4.410384968E-2,4.553431806E-1
1.557877583E0,-3.315578699E-1,-1.132158116E-1,7.841016352E-2,3.590217192E-1
1.567896583E0,-2.346658856E-1,-1.222273782E-1,1.065165922E-1,2.852251641E-1
1.577915583E0,-1.303429455E-1,-1.686638445E-1,1.071221977E-1,2.385622374E-1
1.587934583E0,-2.602752298E-2,-1.860454828E-1,7.795958966E-2,2.033913745E-1
1.597953583E0,7.819182426E-2,-1.939526796E-1,-1.679700986E-2,2.097945253E-1
1.607972583E0,2.186204940E-1,-1.143632829E-1,-8.173497766E-2,2.599124611E-1
1.617991583E0,3.442721367E-1,-1.096169949E-1,-1.682893187E-1,3.985730604E-1
1.628010583E0,4.333949685E-1,-2.121493369E-1,-2.902180254E-1,5.630852886E-1
1.638029583E0,5.519990921E-1,-1.916653663E-1,-3.140357435E-1,6.633679661E-1
1.648048583E0,6.445938349E-1,-1.138277501E-1,-2.857418656E-1,7.142173216E-1
1.658067583E0,6.892763376E-1,-3.026668448E-3,-2.613875270E-1,7.371800795E-1
1.668086583E0,7.048749328E-1,1.261538863E-1,-2.818972468E-1,7.695645078E-1
1.678105583E0,6.432310343E-1,1.701213419E-1,-2.551231682E-1,7.125835147E-1
1.688124583E0,5.279440284E-1,1.279725730E-1,-2.368735075E-1,5.926305216E-1
1.698144583E0,4.572264254E-1,1.377937645E-1,-2.640851736E-1,5.456959818E-1
1.708163583E0,4.051045775E-1,2.435000390E-1,-3.064664900E-1,5.633149184E-1
1.718182583E0,3.543772101E-1,4.014830291E-1,-3.277328908E-1,6.278380981E-1
1.728201583E0,2.738239169E-1,4.955354631E-1,-2.963213325E-1,6.390158564E-1
1.738220583E0,1.852191985E-1,5.333483219E-1,-2.259374410E-1,6.081235986E-1
1.748239583E0,6.694491208E-2,5.011544228E-1,-1.496290863E-1,5.272819361E-1
1.758258583E0,-7.275945693E-2,3.735098839E-1,-1.013792679E-1,3.938036667E-1
1.768277583E0,-1.811334938E-1,2.140941918E-1,-7.749098539E-2,2.909476213E-1
1.778296583E0,-2.604330778E-1,6.406181306E-2,-6.790120900E-2,2.766584141E-1
1.788315583E0,-3.259597719E-1,-1.054483801E-1,-5.911671743E-2,3.476548864E-1
1.798334583E0,-3.591648638E-1,-1.955524385E-1,-5.850312486E-2,4.131135089E-1
1.808353583E0,-3.781351149E-1,-2.355179936E-1,-4.956762865E-2,4.482319045E-1
1.818372583E0,-3.909656703E-1,-2.457370758E-1,-9.578665718E-3,4.618794395E-1
1.828391583E0,-3.644747734E-1,-2.079543322E-1,4.328162596E-2,4.218532492E-1
1.838410583E0,-3.361752331E-1,-1.595175564E-1,6.695606560E-2,3.780777075E-1
1.848429583E0,-3.192071915E-1,-1.489040405E-1,7.899365574E-2,3.609787279E-1
1.858448583E0,-2.854244709E-1,-1.438299119E-1,8.830194175E-2,3.315892113E-1
1.868467583E0,-2.738004923E-1,-1.569249034E-1,8.972642571E-2,3.280898754E-1
1.878486583E0,-2.635097802E-1,-1.973993629E-1,8.320354670E-2,3.395979136E-1
1.888505583E0,-2.650122643E-1,-2.555968761E-1,6.543187052E-2,3.739553355E-1
1.898524583E0,-2.521398962E-1,-3.621374369E-1,4.549624398E-2,4.436078884E-1
1.908543583E0,-2.374421507E-1,-4.317724705E-1,3.058553115E-2,4.937020518E-1
1.918562583E0,-2.380940914E-1,-4.861568809E-1,5.439365655E-2,5.440551250E-1
1.928581583E0,-2.135296911E-1,-4.656476378E-1,6.949738413E-2,5.169647358E-1
1.938600583E0,-1.710743755E-1,-3.986241221E-1,8.682177961E-2,4.423863177E-1
1.948619583E0,-1.105764732E-1,-2.937674820E-1,9.533827752E-2,3.280485895E-1
1.958638583E0,-5.123085901E-2,-1.809879392E-1,1.032867506E-1,2.145912112E-1
1.968657583E0,1.562031358E-2,-7.862555236E-2,7.123548537E-2,1.072402259E-1
1.978676583E0,8.348245174E-2,6.455718540E-4,1.620898023E-2,8.504391543E-2
1.988695583E0,1.487886161E-1,6.468714774E-2,-2.089279704E-2,1.635817481E-1
1.998714583E0,1.959108561E-1,1.502430588E-1,-2.979920618E-2,2.486805842E-1
2.008734583E0,2.098841667E-1,2.536673844E-1,-1.982647367E-2,3.298357082E-1
2.018753583E0,1.800983101E-1,3.049001992E-1,-1.377790421E-2,3.543858962E-1
2.028772583E0,1.080431268E-1,2.812186480E-1,-2.385361306E-2,3.022023164E-1
2.038791583E0,9.557037614E-3,2.290297151E-1,-4.178041592E-2,2.330054731E-1
2.048810583E0,-7.321251929E-2,1.763994843E-1,-4.426151142E-2,1.960508414E-1
2.058829583E0,-1.397795528E-1,1.215745807E-1,-3.733622655E-2,1.889780301E-1
2.068848583E0,-1.963208467E-1,7.485403121E-2,-1.663599908E-2,2.107646965E-1
2.078867583E0,-2.296263278E-1,5.569897592E-2,1.385479793E-2,2.366908992E-1
2.088886583E0,-2.339110970E-1,6.663578004E-2,5.208047852E-2,2.487309887E-1
2.098905583E0,-2.295261919E-1,4.608469829E-2,8.271988481E-2,2.482914649E-1
2.108924583E0,-2.004605979E-1,6.006975099E-2,9.037082642E-2,2.279467318E-1
2.118943583E0,-1.473848522E-1,6.933728606E-2,7.047727704E-2,1.774739431E-1
2.128962583E0,-8.542360365E-2,1.537311170E-2,3.443134204E-2,9.337581025E-2
2.138981583E0,3.254595213E-3,-1.594299823E-2,1.214798889E-3,1.631708672E-2
2.149000583E0,1.165669337E-1,-3.897353634E-2,-4.639721941E-3,1.229972097E-1
2.159019583E0,2.541860342E-1,-9.118614346E-2,1.720805280E-2,2.705948444E-1
2.169038583E0,3.756723106E-1,-2.075483948E-1,5.269836634E-2,4.324154703E-1
2.179057583E0,4.838704169E-1,-3.116820157E-1,9.276483208E-2,5.829936306E-1
2.189076583E0,5.560788512E-1,-3.090420365E-1,1.554872841E-1,6.549098905E-1
2.199095583E0,5.835863948E-1,-2.052381486E-1,2.169104367E-1,6.555500861E-1
2.209114583E0,5.952657461E-1,-1.137279421E-1,2.382109612E-1,6.511680393E-1
2.219133583E0,5.735958815E-1,-5.275753513E-2,2.243049890E-1,6.181491089E-1
2.229151708E0,5.231057405E-1,-4.719574377E-2,1.930845380E-1,5.595969021E-1
2.239170708E0,4.507234395E-1,-4.388383776E-2,1.635325104E-1,4.814771978E-1
2.249189708E0,3.736267984E-1,-5.768270791E-2,1.382044405E-1,4.025229765E-1
2.259208708E0,2.966843545E-1,-5.802758783E-2,1.160908863E-1,3.238300497E-1
2.269227708E0,2.252212912E-1,-4.614885896E-2,1.117110923E-1,2.556046074E-1
2.279246708E0,1.613919735E-1,-1.436562743E-2,1.209916770E-1,2.022195002E-1
2.289265708E0,8.265455812E-2,3.915244341E-2,1.331819296E-1,1.615614935E-1
2.299284708E0,-1.509490237E-2,6.855401397E-2,1.356687844E-1,1.527531602E-1
2.309304708E0,-1.149320230E-1,6.657662988E-2,1.157108918E-1,1.761556926E-1
2.319323708E0,-2.023532093E-1,5.124187842E-2,9.049262106E-2,2.275114632E-1
2.329342708E0,-2.850893736E-1,3.466634825E-2,6.214422733E-2,2.938360285E-1
2.339361708E0,-3.313783109E-1,1.245345362E-2,3.354240954E-2,3.333043154E-1
2.349380708E0,-3.527949750E-1,1.944636181E-2,1.764561050E-2,3.537708622E-1
2.359399708E0,-3.619799614E-1,5.017178506E-2,6.104002241E-3,3.654913943E-1
2.369418708E0,-3.472989500E-1,9.278001636E-2,-8.367280476E-3,3.595757270E-1
2.379437708E0,-3.300920129E-1,1.307851970E-1,-3.403509408E-2,3.566845839E-1
2.389456708E0,-3.107213080E-1,1.599220186E-1,-6.386821717E-2,3.552491132E-1
2.399475708E0,-2.786200941E-1,1.886713803E-1,-8.266667277E-2,3.464965012E-1
2.409494708E0,-2.370613813E-1,2.036843896E-1,-7.384406775E-2,3.211516393E-1
2.419513708E0,-2.033194005E-1,2.075326592E-1,-4.882952571E-2,2.946063574E-1
2.429532708E0,-1.902687252E-1,1.851698458E-1,-2.495280281E-2,2.666696495E-1
2.439551708E0,-1.862817109E-1,1.608152241E-1,-7.303768769E-3,2.462026749E-1
2.449570708E0,-2.074834853E-1,1.528581530E-1,1.120577916E-3,2.577135373E-1
2.459589708E0,-2.276819646E-1,1.389950663E-1,5.666860379E-3,2.668160767E-1
2.469608708E0,-2.511619925E-1,1.263438761E-1,8.689699695E-3,2.812839000E-1
2.479627708E0,-2.974469364E-1,1.174608916E-1,-1.030305633E-3,3.198011922E-1
2.489646708E0,-3.723265827E-1,8.645306528E-2,-7.294033654E-3,3.823014774E-1
2.499665708E0,-4.754438996E-1,5.592418090E-2,-1.613146625E-2,4.789933610E-1
2.509684708E0,-6.025380492E-1,2.732939087E-2,-1.405084413E-2,6.033211604E-1
2.519703708E0,-7.390607595E-1,-1.280710846E-2,-7.440932677E-4,7.391720923E-1
2.529722708E0,-8.412206173E-1,-9.381676465E-2,2.322923578E-2,8.467545746E-1
2.539741708E0,-9.204334021E-1,-1.578689814E-1,6.668243557E-2,9.362514674E-1
2.549760708E0,-1.012657762E0,-2.261092812E-1,1.215696558E-1,1.044691500E0
2.559779708E0,-1.090068460E0,-2.933415771E-1,1.688191891E-1,1.141401965E0
2.569798708E0,-1.145724773E0,-3.480208814E-1,2.057792991E-1,1.214968687E0
2.579817708E0,-1.203685284E0,-3.825490177E-1,2.214450687E-1,1.282279194E0
2.589836708E0,-1.230172753E0,-4.515597820E-1,2.387154698E-1,1.331997115E0
2.599855708E0,-1.195002794E0,-5.259405375E-1,2.989604175E-1,1.339411236E0
2.609875708E0,-1.095737219E0,-5.621675253E-1,3.127273619E-1,1.270618268E0
2.619894708E0,-9.917540550E-1,-5.333886147E-1,3.240189254E-1,1.171779751E0
2.629913708E0,-8.983031511E-1,-4.657846987E-1,3.173578084E-1,1.060480983E0
2.639932708E0,-8.445291519E-1,-4.087528288E-1,3.051040769E-1,9.866087681E-1
2.649951708E0,-8.578625917E-1,-3.786234856E-1,2.941012979E-1,9.827408323E-1
2.659970708E0,-9.543976784E-1,-3.144157529E-1,2.760493159E-1,1.042082252E0
2.669989708E0,-1.093352437E0,-1.922391951E-1,2.660821974E-1,1.141566991E0
2.680008708E0,-1.249991298E0,-4.395012558E-2,2.647591531E-1,1.278478497E0
2.690027708E0,-1.354765534E0,-5.152731668E-3,2.900064886E-1,1.385467418E0
2.700046708E0,-1.472209096E0,-1.412999183E-1,3.105890155E-1,1.511234868E0
2.710065708E0,-1.640862942E0,-4.401528537E-1,3.031303883E-1,1.725703845E0
2.720084708E0,-1.791444898E0,-7.268437743E-1,2.801608741E-1,1.953475572E0
2.730103708E0,-1.851049662E0,-9.152976274E-1,2.732331157E-1,2.082981261E0
2.740122708E0,-1.850809693E0,-1.045073152E0,2.880400121E-1,2.144910595E0
2.750141708E0,-1.878425121E0,-1.076781273E0,3.129384816E-1,2.187662986E0
2.760160708E0,-1.960629702E0,-9.724330902E-1,3.540006876E-1,2.216982505E0
2.770179708E0,-2.064382076E0,-7.517578602E-1,4.002583027E-1,2.233163663E0
2.780198708E0,-2.155108213E0,-5.151362419E-1,4.603714347E-1,2.263139107E0
2.790217708E0,-2.224417925E0,-2.699950039E-1,5.416454077E-1,2.305279192E0
2.800236708E0,-2.290510416E0,-8.270553499E-2,5.929876566E-1,2.367469648E0
2.810255708E0,-2.321346760E0,6.454194337E-2,6.172055602E-1,2.402864779E0
2.820274708E0,-2.306875229E0,2.374807000E-1,5.757254958E-1,2.389462335E0
2.830293708E0,-2.263829947E0,2.864311934E-1,4.678252935E-1,2.329340971E0
2.840312708E0,-2.224312305E0,1.599984169E-1,3.330672085E-1,2.254794556E0
2.850331708E0,-2.148748636E0,2.539377660E-2,2.200186998E-1,2.160132814E0
2.860350708E0,-2.000456333E0,5.273381248E-5,2.302409708E-1,2.013662446E0
2.870369708E0,-1.748484015E0,1.424674094E-1,3.114011586E-1,1.781702556E0
2.880388708E0,-1.441527843E0,3.602612615E-1,3.919314146E-1,1.536685047E0
2.890407708E0,-1.220456123E0,5.677110553E-1,4.355404377E-1,1.414745371E0
2.900426708E0,-1.123347640E0,6.934122443E-1,4.260422885E-1,1.387170679E0
2.910446708E0,-1.109803796E0,7.148934007E-1,3.795467019E-1,1.373605743E0
2.920465708E0,-1.157505989E0,6.475551128E-1,3.220570385E-1,1.364869399E0
2.930484708E0,-1.181861162E0,5.350181460E-1,2.723849714E-1,1.325606954E0
2.940503708E0,-1.133536577E0,3.588228822E-1,2.314982861E-1,1.211301155E0
2.950522708E0,-1.039472461E0,1.693043858E-1,2.086073607E-1,1.073631223E0
2.960541708E0,-9.284986258E-1,-5.104476213E-2,1.773666292E-1,9.466647701E-1
2.970560708E0,-8.460065126E-1,-2.753999233E-1,1.741344482E-1,9.065842174E-1
2.980579708E0,-7.259810567E-1,-5.352448225E-1,2.343602329E-1,9.319121383E-1
2.990598708E0,-5.541928411E-1,-6.520888209E-1,3.151017129E-1,9.119422268E-1
3.000617708E0,-3.722299933E-1,-5.866288543E-1,3.434928656E-1,7.750328569E-1
3.010636708E0,-1.444359422E-1,-3.436177969E-1,3.094256818E-1,4.844369766E-1
3.020655708E0,2.201199234E-1,-5.441395193E-2,2.220348418E-1,3.173533201E-1
3.030674708E0,6.994076371E-1,1.904708743E-1,9.073634446E-2,7.305362969E-1
3.040693708E0,1.163224339E0,3.637574613E-1,-6.136956438E-2,1.220318228E0
3.050712708E0,1.579376698E0,4.150345325E-1,-1.924261153E-1,1.644296879E0
3.060731708E0,1.939921021E0,4.943141639E-1,-2.608904243E-1,2.018837258E0
3.070750708E0,2.182421923E0,5.956860185E-1,-2.720981240E-1,2.278561974E0
3.080769708E0,2.436482668E0,6.024677753E-1,-2.086376697E-1,2.518520377E0
3.090788708E0,2.671857595E0,6.008206010E-1,-1.299449801E-1,2.741659006E0
3.100807708E0,2.886724710E0,6.853621006E-1,-9.391001612E-2,2.968454119E0
3.110826708E0,3.145606279E0,8.065172434E-1,-9.899692982E-2,3.248862773E0
3.120845708E0,3.504242897E0,8.656362295E-1,-8.134869486E-2,3.610493314E0
3.130864708E0,3.834828377E0,6.801356077E-1,1.349882782E-2,3.894698363E0
3.140883708E0,4.187684059E0,4.580266476E-1,2.010588646E-1,4.217453124E0
3.150902708E0,4.770205498E0,-4.975698590E-1,4.048895836E-1,4.813145731E0
3.160921708E0,5.605596066E0,-1.810127735E0,5.184590816E-1,5.913380546E0
3.170940708E0,6.868393898E0,-3.390385866E0,2.681656182E-1,7.664298002E0
3.180959708E0,8.752412796E0,-4.836720467E0,-4.512687027E-1,1.001010680E1
3.190978708E0,1.084758663E1,-5.666515827E0,-1.452723742E0,1.232436382E1
3.200997708E0,1.259731197E1,-5.655752659E0,-2.339540243E0,1.400547235E1
3.211017708E0,1.416415119E1,-4.573920727E0,-3.007008553E0,1.518505944E1
3.221036708E0,1.555805016E1,-3.145911694E0,-3.327979803E0,1.621804965E1
3.231056125E0,1.704803658E1,-3.457882881E0,-3.242531300E0,1.769481603E1
3.241075125E0,1.871019363E1,-4.490662098E0,-3.448727608E0,1.954817419E1
3.251094125E0,1.908303833E1,-5.532391548E0,-3.824408531E0,2.023353179E1
3.261113125E0,1.877893829E1,-6.389351845E0,-4.475494862E0,2.033475829E1
3.271132125E0,1.844226456E1,-7.240208149E0,-5.208524227E0,2.048576239E1
3.281151125E0,1.801420403E1,-8.215143204E0,-6.023803234E0,2.069507985E1
3.291170125E0,1.746233177E1,-9.309184074E0,-6.926390648E0,2.096589675E1
3.301189125E0,1.674662971E1,-1.050714111E1,-7.914851189E0,2.129541008E1
3.311208125E0,1.581691551E1,-1.179871559E1,-8.974385262E0,2.167773274E1
3.321227125E0,1.464201355E1,-1.315935230E1,-1.009307289E1,2.212300238E1
3.331246125E0,1.316916561E1,-1.454042435E1,-1.122500801E1,2.260202796E1
3.341265125E0,1.138190937E1,-1.586280251E1,-1.232316971E1,2.308759138E1
3.351284125E0,9.278644562E0,-1.705303574E1,-1.332841301E1,2.354879755E1
3.361303125E0,6.872128010E0,-1.803215599E1,-1.416739178E1,2.393950256E1
3.371322125E0,4.214554310E0,-1.874596596E1,-1.477459145E1,2.423762076E1
3.381341125E0,1.391802549E0,-1.912268448E1,-1.509933949E1,2.440500418E1
3.391360125E0,-1.490482450E0,-1.911651230E1,-1.510473347E1,2.440933333E1
3.401379125E0,-4.301465511E0,-1.870862770E1,-1.479244900E1,2.423493147E1
3.411398125E0,-6.935288906E0,-1.793190002E1,-1.419926357E1,2.390126266E1
3.421417125E0,-9.303305626E0,-1.686612511E1,-1.337149334E1,2.344812372E1
3.431436125E0,-1.135673523E1,-1.559551239E1,-1.239045811E1,2.292856066E1
3.441455125E0,-1.308434868E1,-1.420494080E1,-1.132371521E1,2.238765395E1
3.451474125E0,-1.449470901E1,-1.277832699E1,-1.022848415E1,2.186330529E1
3.461493125E0,-1.562975788E1,-1.137553978E1,-9.160190582E0,2.139161818E1
3.471512125E0,-1.652782249E1,-1.003562355E1,-8.145524979E0,2.098171189E1
3.481531125E0,-1.722919273E1,-8.790222168E0,-7.206209660E0,2.064079809E1
3.491550125E0,-1.776896477E1,-7.650041103E0,-6.356711388E0,2.036337441E1
3.501569125E0,-1.817204285E1,-6.614463806E0,-5.594890594E0,2.013149457E1
3.511589125E0,-1.847861481E1,-5.688355446E0,-4.928741932E0,1.995267125E1
3.521608125E0,-1.870040894E1,-4.859259605E0,-4.342689037E0,1.980345036E1
3.531627125E0,-1.886511230E1,-4.115931988E0,-3.836916208E0,1.968642386E1
3.541646125E0,-1.898510361E1,-3.454026937E0,-3.406988144E0,1.959520424E1
3.551665125E0,-1.906481552E1,-2.863516808E0,-3.043346643E0,1.951739937E1
3.561684125E0,-1.912127304E1,-2.334640741E0,-2.739721775E0,1.945712480E1
3.571703125E0,-1.915966606E1,-1.858428359E0,-2.491883039E0,1.941020455E1
3.581722125E0,-1.918245125E1,-1.420810342E0,-2.298225403E0,1.937180884E1
3.591741125E0,-1.919165039E1,-1.016642451E0,-2.149348021E0,1.933837386E1
3.601760125E0,-1.919138908E1,-6.381003261E-1,-2.044289589E0,1.931050768E1
3.611779125E0,-1.918469620E1,-2.731936872E-1,-1.980182409E0,1.928855426E1
3.621798125E0,-1.916709900E1,8.340784907E-2,-1.958599329E0,1.926708987E1
3.631817125E0,-1.914552307E1,4.418059886E-1,-1.975105882E0,1.925220220E1
3.641836125E0,-1.911945343E1,8.044946790E-1,-2.032788515E0,1.924403649E1
3.651855125E0,-1.908496094E1,1.177074313E0,-2.130751133E0,1.923957739E1
3.661874125E0,-1.904212952E1,1.573480725E0,-2.271838665E0,1.924161607E1
3.671893125E0,-1.898503685E1,1.996829987E0,-2.461984634E0,1.924786540E1
3.681912125E0,-1.890997314E1,2.454153776E0,-2.694682598E0,1.925801831E1
3.691931125E0,-1.881828308E1,2.951653004E0,-2.984180212E0,1.928069929E1
3.701950125E0,-1.869360924E1,3.500747442E0,-3.330751657E0,1.930803371E1
3.711969125E0,-1.853693581E1,4.107213497E0,-3.735140085E0,1.935041248E1
3.721988125E0,-1.833728409E1,4.785600662E0,-4.206147194E0,1.941261537E1
3.732007125E0,-1.807915497E1,5.542518616E0,-4.747401714E0,1.949649148E1
3.742026125E0,-1.775146294E1,6.388269901E0,-5.365172863E0,1.961401307E1
3.752045125E0,-1.733100128E1,7.325014114E0,-6.063453674E0,1.976828034E1
3.762064125E0,-1.679908562E1,8.349916458E0,-6.842056274E0,1.996857823E1
3.772083125E0,-1.612980843E1,9.465115547E0,-7.693773746E0,2.022259347E1
3.782102125E0,-1.528368092E1,1.066592789E1,-8.621919632E0,2.053510210E1
3.792121125E0,-1.424067593E1,1.193643761E1,-9.594544411E0,2.091245265E1
3.802141125E0,-1.296100521E1,1.323767757E1,-1.060472679E1,2.134675605E1
3.812160125E0,-1.141689014E1,1.451574326E1,-1.159850693E1,2.180774050E1
3.822179125E0,-9.599468231E0,1.570627308E1,-1.253123569E1,2.226810886E1
3.832198125E0,-7.512110710E0,1.672951508E1,-1.335201740E1,2.268446276E1
3.842217125E0,-5.178089619E0,1.750172615E1,-1.399428654E1,2.299919751E1
3.852236125E0,-2.663228750E0,1.796919250E1,-1.441408539E1,2.318944855E1
3.862255125E0,-6.308616698E-2,1.808408546E1,-1.456673527E1,2.322128126E1
3.872274125E0,2.533765078E0,1.786026573E1,-1.444405651E1,2.310930172E1
3.882293125E0,5.031738281E0,1.733319092E1,-1.405853939E1,2.287794631E1
3.892312125E0,7.349144459E0,1.656217575E1,-1.344794083E1,2.256463388E1
3.902331125E0,9.416299820E0,1.561089706E1,-1.265804100E1,2.219443199E1
3.912350125E0,1.120406723E1,1.454151440E1,-1.174330711E1,2.179201747E1
3.922369125E0,1.271005917E1,1.340323257E1,-1.076153946E1,2.137762800E1
3.932388125E0,1.394342136E1,1.224259758E1,-9.751426697E0,2.096164396E1
3.942407125E0,1.492794132E1,1.108058357E1,-8.755111694E0,2.054932469E1
3.952426125E0,1.569610500E1,9.953780174E0,-7.801862240E0,2.015724452E1
3.962445125E0,1.628944588E1,8.889556885E0,-6.906800747E0,1.980086274E1
3.972464125E0,1.673950577E1,7.898799419E0,-6.083793640E0,1.948370167E1
3.982483125E0,1.707933807E1,6.992131233E0,-5.338294983E0,1.921174332E1
3.992502125E0,1.734436035E1,6.175399303E0,-4.660349846E0,1.899161008E1
4.002521125E0,1.755389214E1,5.445521832E0,-4.056820393E0,1.882154693E1
4.012540125E0,1.772145081E1,4.801081657E0,-3.513064384E0,1.869336313E1
4.022559125E0,1.786283875E1,4.231639385E0,-3.029360771E0,1.860550474E1
4.032578125E0,1.796770287E1,3.733241320E0,-2.606393814E0,1.853560697E1
4.042597125E0,1.805215645E1,3.311594486E0,-2.228434563E0,1.848818355E1
4.052616125E0,1.811274338E1,2.967710018E0,-1.886942744E0,1.845099803E1
4.062635125E0,1.815941048E1,2.679459095E0,-1.575558543E0,1.842351960E1
4.072654125E0,1.819179153E1,2.442594051E0,-1.291715980E0,1.840043682E1
4.082674125E0,1.823288345E1,2.244379759E0,-1.029758453E0,1.839933917E1
4.092693125E0,1.826068306E1,2.083300352E0,-7.864404917E-1,1.839595539E1
4.102712125E0,1.827243233E1,1.961922526E0,-5.592502356E-1,1.838596432E1
4.112731125E0,1.365109158E1,-1.690596199E1,-3.124968708E-1,2.173157855E1
4.122750125E0,-1.811451912E1,-3.488099289E1,3.534867525E0,3.946282753E1
4.132769125E0,-2.946530342E1,-3.506514740E1,1.028618336E1,4.694224362E1
4.142788125E0,-1.928198814E1,-3.472877121E1,1.452475834E1,4.229481317E1
4.152807125E0,-9.444366455E0,-2.445485306E1,1.266177177E1,2.911282124E1
4.162826125E0,-4.829118729E0,-1.976350021E1,1.235794926E1,2.380410129E1
4.172845125E0,2.501452923E0,-2.903134537E1,1.226476479E1,3.161488156E1
4.182864125E0,8.717059135E0,-2.590846062E1,1.233325768E1,2.998907628E1
4.192883125E0,1.000267887E1,-1.819790077E1,1.352186012E1,2.478019125E1
4.202902125E0,6.803834438E0,-8.366933823E0,1.290327358E1,1.681642690E1
4.212921125E0,1.415751100E0,-1.368584514E0,1.145472336E1,1.162273900E1
4.222940125E0,-9.438163638E-1,-7.894573212E-1,1.034569263E1,1.041860779E1
4.232959333E0,-2.925956011E0,1.916318655E0,9.708318710E0,1.031915442E1
4.242978333E0,-4.692912102E0,5.071856976E0,9.197228432E0,1.150374582E1
4.252997333E0,-5.848285198E0,5.865257263E0,8.814140320E0,1.209515408E1
4.263016333E0,-6.424682140E0,8.099012971E-1,8.836842537E0,1.095546744E1
4.273035333E0,-5.616336346E0,-4.472467899E0,9.437357903E0,1.185790569E1
4.283054333E0,-3.915231228E0,-1.424094200E0,9.308401108E0,1.019820627E1
4.293073333E0,-2.449907541E0,5.993609428E0,9.409823418E0,1.142235430E1
4.303092333E0,-1.253018498E0,9.825652122E0,9.462877274E0,1.369888832E1
4.313111333E0,-8.154802322E-1,4.799558163E0,9.882246971E0,1.101633205E1
4.323130333E0,-3.067277372E-1,-2.860331237E-1,1.026828289E1,1.027684438E1
4.333149333E0,6.824599504E-1,-4.264843941E0,9.921934128E0,1.082124865E1
4.343168333E0,4.371612370E-1,-4.231330872E0,8.835085869E0,9.805815275E0
4.353187333E0,9.681189060E-1,-3.018396378E0,7.478880882E0,8.122907740E0
4.363206333E0,2.072447538E0,-3.357644796E0,5.481733799E0,6.754126355E0
4.373225333E0,1.562789798E0,-3.637708902E0,3.851660013E0,5.523633122E0
4.383245333E0,-1.972745061E-1,-2.343612909E0,2.511930704E0,3.441109496E0
4.393264333E0,-1.863241911E0,-7.197680473E-1,9.343767762E-1,2.205174918E0
4.403283333E0,-2.387981415E0,9.847325087E-1,-1.509724408E-1,2.587459377E0
4.413302333E0,-1.873385668E0,2.944762230E0,-6.746740937E-1,3.554769132E0
4.423321333E0,-1.535258293E0,3.933877707E0,-7.586289048E-1,4.290446323E0
4.433340333E0,-2.081550121E0,2.984406471E0,-7.881263494E-1,3.722992887E0
4.443359333E0,-2.545158386E0,1.380243182E0,-1.057152510E0,3.082283874E0
4.453378333E0,-2.389888287E0,9.100224376E-1,-1.404156566E0,2.917423953E0
4.463397333E0,-1.527113318E0,9.979326129E-1,-1.558464050E0,2.399323818E0
4.473416333E0,-8.236339688E-1,1.208587408E0,-1.379159331E0,2.010257918E0
4.483435333E0,3.607414663E-2,3.582606614E-1,-7.836858630E-1,8.624474346E-1
4.493454333E0,1.124648929E0,-1.301729321E0,-3.905878663E-1,1.764055929E0
4.503473333E0,1.673513651E0,-3.046732664E0,-1.225718558E-1,3.478254120E0
4.513492333E0,1.807812691E0,-3.599081039E0,1.231648102E-1,4.029483915E0
4.523511333E0,1.597144723E0,-2.812108517E0,3.885003328E-1,3.257262360E0
4.533530333E0,9.002248049E-1,-1.403545141E0,5.684005618E-1,1.761653445E0
4.543549333E0,-3.778898343E-2,2.020734996E-1,6.278817058E-1,6.606793041E-1
4.553568333E0,-8.411371708E-1,1.930229545E0,4.779477715E-1,2.159104423E0
4.563587333E0,-1.316346049E0,3.572856903E0,2.532648444E-1,3.816047229E0
4.573606333E0,-1.736019850E0,4.570026398E0,2.942038141E-2,4.888739281E0
4.583625333E0,-2.034304619E0,4.886513710E0,-1.762395650E-1,5.295986396E0
4.593644333E0,-2.059120417E0,4.707838058E0,-4.318914711E-1,5.156573118E0
4.603663333E0,-1.893215179E0,4.054398060E0,-7.229158878E-1,4.532660888E0
4.613682333E0,-1.510887504E0,3.094253778E0,-1.017683387E0,3.590663862E0
4.623701333E0,-8.990126252E-1,2.299792767E0,-1.127962947E0,2.714695357E0
4.633720333E0,-3.586651683E-1,1.673811316E0,-9.839259386E-1,1.974435433E0
4.643739333E0,-1.835650206E-1,9.074665308E-1,-6.480930448E-1,1.130139910E0
4.653758333E0,-3.221574128E-1,-5.622914433E-2,-2.148776352E-1,3.913048855E-1
4.663778333E0,-4.795185328E-1,-8.295664191E-1,1.916802675E-1,9.771692750E-1
4.673797333E0,-3.581526279E-1,-1.165850878E0,4.181423187E-1,1.289311666E0
4.683816333E0,-5.953343958E-2,-1.331656575E0,4.174011350E-1,1.396809641E0
4.693835333E0,1.504520327E-1,-1.551824450E0,1.414435357E-1,1.565503501E0
4.703854333E0,2.271063328E-1,-1.672090650E0,-3.003658354E-1,1.713967346E0
4.713873333E0,3.005195558E-1,-1.558526397E0,-7.370650768E-1,1.750023274E0
4.723892333E0,3.978240192E-1,-1.313331246E0,-1.045650005E0,1.725249793E0
4.733911333E0,4.644028246E-1,-1.318563104E0,-1.226730466E0,1.859878028E0
4.743930333E0,4.287561476E-1,-1.614356875E0,-1.278328896E0,2.103355586E0
4.753949333E0,3.590449393E-1,-2.089468479E0,-1.244537115E0,2.458386549E0
4.763968333E0,4.162360728E-1,-2.223711491E0,-1.179270267E0,2.551239625E0
4.773987333E0,5.372024179E-1,-2.065480232E0,-1.112726927E0,2.406856091E0
4.784006333E0,5.468412042E-1,-2.140616655E0,-1.156700015E0,2.493838385E0
4.794025333E0,3.973509371E-1,-2.224584818E0,-1.228280783E0,2.572030144E0
4.804044333E0,2.188986689E-1,-2.222120762E0,-1.360032439E0,2.614464676E0
4.814063333E0,6.779120117E-2,-1.692954779E0,-1.602420807E0,2.332047163E0
4.824082333E0,-1.670572609E-1,-8.294996023E-1,-1.759802461E0,1.952660344E0
4.834101333E0,-6.984786987E-1,-4.090442359E-1,-1.842066169E0,2.012062984E0
4.844120333E0,-1.472692132E0,-2.572920024E-1,-1.881152630E0,2.402864230E0
4.854139333E0,-2.101231813E0,-2.725074291E-1,-1.960293770E0,2.886552805E0
4.864158333E0,-2.399257183E0,1.845895499E-1,-2.069085836E0,3.173582287E0
4.874177333E0,-2.454605818E0,9.235581160E-1,-2.194311619E0,3.419510607E0
4.884196333E0,-2.464113235E0,1.636513472E0,-2.395260096E0,3.806218767E0
4.894215333E0,-2.536453485E0,2.205356359E0,-2.581255913E0,4.237932874E0
4.904234333E0,-2.565129042E0,2.627381563E0,-2.588491440E0,4.492583757E0
4.914253333E0,-2.598927975E0,3.153181314E0,-2.444279671E0,4.761457983E0
4.924272333E0,-2.716300249E0,3.624877214E0,-2.182161808E0,5.027907320E0
4.934292333E0,-2.870895386E0,3.914582729E0,-1.914036870E0,5.218192733E0
4.944311333E0,-2.922947168E0,3.888146400E0,-1.727536201E0,5.161945748E0
4.954330333E0,-2.788424015E0,3.619973660E0,-1.654735208E0,4.859801065E0
4.964349333E0,-2.436849117E0,3.077834129E0,-1.706190109E0,4.280465073E0
4.974368333E0,-1.929105282E0,2.611837626E0,-1.834302902E0,3.729317646E0
4.984387333E0,-1.398822784E0,2.208000898E0,-1.945493340E0,3.258361166E0
4.994406333E0,-1.018773794E0,1.903066516E0,-1.977808237E0,2.927676148E0
5.004425333E0,-8.383827209E-1,1.682091713E0,-1.949601293E0,2.707999874E0
5.014444333E0,-8.153710365E-1,1.460180163E0,-1.835634828E0,2.483246113E0
5.024463333E0,-8.095773458E-1,1.216472626E0,-1.703705788E0,2.244512094E0
5.034482333E0,-8.323369026E-1,8.661915064E-1,-1.643765450E0,2.035936467E0
5.044501333E0,-7.880557179E-1,5.231571794E-1,-1.693848848E0,1.940064218E0
5.054520333E0,-6.926531792E-1,2.743332684E-1,-1.857729316E0,2.001545748E0
5.064539333E0,-6.002542377E-1,1.883374155E-1,-2.027316093E0,2.122683838E0
5.074558333E0,-5.607115626E-1,3.142047226E-1,-2.149483681E0,2.243524495E0
5.084577333E0,-5.865690112E-1,4.760708511E-1,-2.250820875E0,2.374215928E0
5.094596333E0,-6.624564528E-1,6.886277199E-1,-2.305781841E0,2.495934011E0
5.104615333E0,-8.108994961E-1,7.042807341E-1,-2.294856310E0,2.533759031E0
5.114634333E0,-9.229650497E-1,6.792759299E-1,-2.176831722E0,2.460056223E0
5.124653333E0,-9.072153568E-1,7.400956154E-1,-2.001009703E0,2.318366031E0
5.134672333E0,-9.262980819E-1,8.625568748E-1,-1.857384682E0,2.247645514E0
5.144691333E0,-9.658771753E-1,9.682609439E-1,-1.757289767E0,2.226772395E0
5.154710333E0,-8.859519958E-1,1.118749857E0,-1.623898029E0,2.161841111E0
5.164729333E0,-6.932401061E-1,1.396482587E0,-1.401781917E0,2.096601536E0
5.174748333E0,-5.898060799E-1,1.725389719E0,-1.126969337E0,2.143571968E0
5.184767333E0,-6.525093913E-1,1.955349922E0,-7.940771580E-1,2.209008908E0
5.194786333E0,-8.357873559E-1,2.040664911E0,-4.810048342E-1,2.257037757E0
5.204805333E0,-9.767921567E-1,1.957772732E0,-2.640821040E-1,2.203800432E0
5.214825333E0,-1.023748159E0,1.768815041E0,-1.464413106E-1,2.048953879E0
5.224844333E0,-1.012991309E0,1.539096355E0,-9.059403092E-2,1.844769975E0
5.234862625E0,-9.747234732E-2,1.702860594E0,-1.674203128E-1,1.713844982E0
5.244881625E0,3.712626398E-1,1.122048259E0,-2.886178493E-1,1.216605320E0
5.254900625E0,2.605017722E-1,7.804949880E-1,-1.653629541E-1,8.392726054E-1
5.264919625E0,2.054702342E-1,6.152037382E-1,-9.417559952E-2,6.554103296E-1
5.274938625E0,3.359529376E-1,5.596907139E-1,-1.614702642E-1,6.724512753E-1
5.284957625E0,3.407988250E-1,4.340478778E-1,-2.655540407E-1,6.124217075E-1
5.294976625E0,4.335123599E-1,4.861007035E-1,-1.225554571E-1,6.627568937E-1
5.304995625E0,7.038415670E-1,8.117687702E-1,-1.438717544E-2,1.074508482E0
5.315014625E0,7.755618095E-1,9.991486073E-1,1.723453403E-1,1.276517519E0
5.325033625E0,7.569843531E-1,1.047054291E0,3.868600130E-1,1.348706294E0
5.335052625E0,6.451658010E-1,9.275153279E-1,5.863261819E-1,1.272910832E0
5.345071625E0,5.797881484E-1,8.363307714E-1,8.455388546E-1,1.323079518E0
5.355090625E0,5.770789385E-1,6.638270020E-1,1.081528902E0,1.394055650E0
5.365109625E0,5.499298573E-1,4.041652977E-1,1.250194311E0,1.424344850E0
5.375128625E0,5.601790547E-1,-1.923081279E-1,1.502125502E0,1.614671487E0
5.385147625E0,7.894228697E-1,-1.641565204E0,1.672960997E0,2.473201019E0
5.395166625E0,1.004886031E0,-2.069828033E0,1.556302309E0,2.777779851E0
5.405185625E0,1.043474436E0,-1.135524631E0,1.501109362E0,2.152111614E0
5.415204625E0,1.093484759E0,-6.553069353E-1,1.469204903E0,1.945173294E0
5.425223625E0,1.115446568E0,-8.186498657E-3,1.523388743E0,1.888121110E0
5.435242625E0,1.001088619E0,8.507040143E-1,1.548562765E0,2.030744292E0
5.445261625E0,6.690664291E-1,1.605678797E0,1.590783715E0,2.357211724E0
5.455280625E0,2.161350697E-1,2.126968145E0,1.600016356E0,2.670348329E0
5.465299625E0,-1.606385708E-1,2.635078192E0,1.623138785E0,3.099035551E0
5.475318625E0,-4.761032462E-1,3.235702515E0,1.719393849E0,3.694964178E0
5.485337625E0,-7.141698599E-1,3.830419302E0,1.836597443E0,4.307579458E0
5.495357625E0,-8.963568807E-1,4.308560848E0,1.978258848E0,4.825003659E0
5.505376625E0,-1.034153700E0,4.476078987E0,2.066541672E0,5.037395305E0
5.515395625E0,-1.127831936E0,4.159474373E0,2.092846870E0,4.790953972E0
5.525414625E0,-1.150610447E0,3.364695787E0,2.082353354E0,4.120834579E0
5.535433625E0,-1.025093436E0,2.304103613E0,2.010301828E0,3.225061775E0
5.545452625E0,-8.521274924E-1,5.298555493E-1,1.939470291E0,2.183669658E0
5.555471625E0,-6.546797156E-1,-1.099737287E0,1.868942261E0,2.265165072E0
5.565490625E0,-4.463568926E-1,-1.895885825E0,1.807932377E0,2.657486974E0
5.575509625E0,-2.139419764E-1,-2.146330833E0,1.828140974E0,2.827473543E0
5.585528625E0,-3.793951869E-2,-1.685907364E0,1.833505630E0,2.491077266E0
5.595547625E0,1.065945625E-2,-1.232271075E0,1.773659348E0,2.159739130E0
5.605566625E0,-1.391606629E-1,-1.036156654E0,1.672822237E0,1.972643034E0
5.615585625E0,-3.389771581E-1,-8.055257797E-1,1.597789407E0,1.821183210E0
5.625604625E0,-4.768330455E-1,-1.208277822E0,1.591241479E0,2.054106738E0
5.635623625E0,-5.240792632E-1,-1.922707438E0,1.641764045E0,2.582024815E0
5.645642625E0,-4.488779902E-1,-2.486642838E0,1.719590187E0,3.056448014E0
5.655661625E0,-2.696640193E-1,-2.545601130E0,1.831962347E0,3.147838915E0
5.665680625E0,-4.679630697E-2,-2.154680490E0,2.010202885E0,2.947160251E0
5.675699625E0,2.068225741E-1,-1.447233677E0,2.240994453E0,2.675690011E0
5.685718625E0,3.502143621E-1,-6.609776616E-1,2.381648779E0,2.496355839E0
5.695737625E0,4.191173613E-1,3.502061591E-2,2.445811033E0,2.481708568E0
5.705756625E0,4.630413949E-1,4.961698651E-1,2.464879036E0,2.556603319E0
5.715775625E0,4.710749388E-1,5.515329242E-1,2.389327049E0,2.496994977E0
5.725794625E0,3.997419178E-1,3.474751413E-1,2.458913326E0,2.515310581E0
5.735813625E0,3.030858636E-1,-1.133436337E-1,2.471159697E0,2.492255618E0
5.745832625E0,1.499650329E-1,-7.578909397E-1,2.375800610E0,2.498262741E0
5.755852625E0,2.073265426E-2,-1.146881223E0,2.287452698E0,2.558946312E0
5.765871625E0,-3.353084996E-2,-1.133708119E0,2.175367594E0,2.453292193E0
5.775890625E0,-1.189078018E-2,-9.001532793E-1,2.060837030E0,2.248881185E0
5.785909625E0,8.536466211E-2,-5.916612148E-1,1.944508791E0,2.034321645E0
5.795928625E0,2.469595075E-1,-2.895669043E-1,1.830646276E0,1.869787095E0
5.805947625E0,4.562411010E-1,-3.819300234E-2,1.712643504E0,1.772783805E0
5.815966625E0,6.825036407E-1,1.580263823E-1,1.628138661E0,1.772461299E0
5.825985625E0,8.977866173E-1,2.650939524E-1,1.549175143E0,1.810038463E0
5.836004625E0,8.036131859E-1,-3.316508234E-1,1.542975664E0,1.771033687E0
5.846023625E0,8.953614831E-1,-3.798074424E-1,1.388743758E0,1.695445400E0
5.856042625E0,9.031960964E-1,-6.049103141E-1,1.211809158E0,1.627931544E0
5.866061625E0,7.966802716E-1,-7.079975605E-1,1.056327701E0,1.500595952E0
5.876080625E0,7.436841130E-1,-5.377870798E-1,9.603708982E-1,1.328379940E0
5.886099625E0,7.348163128E-1,-6.102135777E-1,1.034336686E0,1.407894884E0
5.896118625E0,7.696498632E-1,-7.543744445E-1,1.170101523E0,1.590779460E0
5.906137625E0,7.328886390E-1,-9.693437219E-1,1.287053466E0,1.770101588E0
5.916156625E0,5.861318707E-1,-8.982725739E-1,1.336862803E0,1.713956341E0
5.926175625E0,2.713371515E-1,-3.899012506E-1,1.329156399E0,1.411489840E0
5.936194625E0,-7.044205070E-2,3.323960304E-1,1.270819426E0,1.315458557E0
5.946213625E0,-3.034521341E-1,1.081051588E0,1.257367015E0,1.685742431E0
5.956232625E0,-4.946249723E-1,1.368092656E0,1.257611752E0,1.922997321E0
5.966251625E0,-6.424024105E-1,1.422453642E0,1.174390912E0,1.953266299E0
5.976270625E0,-6.531749964E-1,1.304893255E0,9.618990421E-1,1.747751055E0
5.986289625E0,-2.657951117E-1,9.619047046E-1,5.751973987E-1,1.151850576E0
5.996308625E0,-2.096192539E-2,6.400713325E-1,2.846363187E-1,7.008199104E-1
6.006327625E0,1.440885514E-1,5.565143824E-1,9.602887183E-2,5.828304322E-1
6.016346625E0,3.684960902E-1,9.376891851E-1,-8.117870428E-3,1.007529789E0
6.026366625E0,3.350513279E-1,1.069527864E0,1.834622584E-2,1.120930787E0
6.036385625E0,2.992758751E-1,9.424445033E-1,6.700590253E-2,9.910890385E-1
6.046404625E0,2.767529786E-1,6.584860086E-1,1.257917136E-1,7.252720799E-1
6.056423625E0,2.343914062E-1,3.830515146E-1,1.849398762E-1,4.856650615E-1
6.066442625E0,1.882854402E-1,2.614300251E-1,2.296492904E-1,3.956461318E-1
6.076461625E0,1.812958121E-1,3.054361641E-1,2.709243894E-1,4.467207703E-1
6.086480625E0,1.561084390E-1,4.842293262E-1,3.140476346E-1,5.978911288E-1
6.096499625E0,1.391832530E-1,6.593342423E-1,3.575231731E-1,7.628344777E-1
6.106518625E0,1.255478710E-1,6.856294870E-1,2.887955010E-1,7.544885041E-1
6.116537625E0,1.841363609E-1,5.179272890E-1,2.063529789E-1,5.871425960E-1
6.126556625E0,3.006994724E-1,2.919067144E-1,2.490442544E-1,4.874964034E-1
6.136575625E0,3.754377365E-1,2.600965798E-1,3.853414357E-1,5.975715412E-1
6.146594625E0,3.696826696E-1,3.850502372E-1,4.793121219E-1,7.174043989E-1
6.156613625E0,3.406949341E-1,3.372693658E-1,5.396215916E-1,7.218137747E-1
6.166632625E0,3.734379709E-1,1.238127351E-1,5.942723155E-1,7.127026704E-1
6.176651625E0,4.368068278E-1,-9.226493537E-2,6.054213643E-1,7.522287228E-1
6.186670625E0,4.607313275E-1,-1.234138012E-1,5.744519830E-1,7.466588265E-1
6.196689625E0,4.210282564E-1,3.850506991E-2,5.610248446E-1,7.024929248E-1
6.206708625E0,3.897930980E-1,2.616665065E-1,5.864372849E-1,7.512101630E-1
6.216727625E0,3.914463818E-1,2.371649146E-1,5.753294826E-1,7.351744555E-1
6.226746625E0,4.003725052E-1,8.911737800E-2,5.335389376E-1,6.729813132E-1
6.236765458E0,4.278154969E-1,9.394145012E-2,5.003787875E-1,6.650037793E-1
6.246784458E0,4.432993829E-1,2.131091207E-1,5.244910717E-1,7.190415319E-1
6.256803458E0,3.907663226E-1,2.852703333E-1,5.607227087E-1,7.405993775E-1
6.266822458E0,3.122624457E-1,2.414903790E-1,5.690895319E-1,6.925953605E-1
6.276841458E0,2.019978911E-1,1.072759107E-1,5.628128648E-1,6.075109791E-1
6.286861458E0,8.643562347E-2,-9.000387788E-2,5.550958514E-1,5.689492238E-1
6.296880458E0,-7.364263292E-3,-3.054324090E-1,5.222210884E-1,6.050273168E-1
6.306899458E0,-1.145325229E-1,-4.638305604E-1,4.802768528E-1,6.774380732E-1
6.316918458E0,-1.792742163E-1,-5.736184716E-1,4.429942667E-1,7.466065336E-1
6.326937458E0,-2.092851102E-1,-6.375787854E-1,3.658523560E-1,7.643002756E-1
6.336956458E0,-1.561604142E-1,-5.981748700E-1,3.623147011E-1,7.165690425E-1
6.346975458E0,-5.208568648E-2,-3.404738307E-1,4.407770336E-1,5.593922966E-1
6.356994458E0,1.501924396E-1,-6.907838583E-2,5.866045356E-1,6.094542423E-1
6.367013458E0,2.949040830E-1,1.782704145E-1,6.568083763E-1,7.417182767E-1
6.377032458E0,3.119696081E-1,3.438918591E-1,6.493389010E-1,7.982654042E-1
6.387051458E0,2.541750371E-1,3.974522948E-1,6.250753403E-1,7.831299108E-1
6.397070458E0,1.623942256E-1,3.371576071E-1,6.185614467E-1,7.229560151E-1
6.407089458E0,4.694699124E-2,1.680282056E-1,6.140210032E-1,6.383253796E-1
6.417108458E0,-7.155384868E-2,-3.094914556E-2,6.134060621E-1,6.183403593E-1
6.427127458E0,-2.217071354E-1,-2.454899400E-1,5.958278775E-1,6.814911769E-1
6.437146458E0,-3.196931481E-1,-4.793423414E-1,6.286419034E-1,8.527387830E-1
6.447165458E0,-4.052487910E-1,-6.466708779E-1,6.578277946E-1,1.007545143E0
6.457184458E0,-4.576432407E-1,-7.053592205E-1,6.725493073E-1,1.076704015E0
6.467203458E0,-4.305370450E-1,-6.740641594E-1,6.718230844E-1,1.044543391E0
6.477222458E0,-3.405584991E-1,-4.871028066E-1,6.450515389E-1,8.771207006E-1
6.487241458E0,-1.720296741E-1,-2.223592848E-1,6.522700191E-1,7.102774374E-1
6.497260458E0,-6.447189301E-2,7.395341247E-2,6.464670897E-1,6.538695820E-1
6.507279458E0,-1.096117776E-3,3.512803614E-1,6.563585997E-1,7.444499346E-1
6.517298458E0,3.789757565E-2,4.313362539E-1,6.438813806E-1,7.759319702E-1
6.527317458E0,6.127000973E-2,4.185245931E-1,6.176202297E-1,7.485797201E-1
6.537336458E0,2.690287493E-2,3.486498594E-1,5.841158628E-1,6.807876544E-1
6.547355458E0,-3.920903429E-2,1.821295917E-1,5.438227654E-1,5.748493165E-1
6.557375458E0,-8.808192611E-2,-2.198754437E-2,5.318000913E-1,5.394934799E-1
6.567394458E0,-1.415771097E-1,-2.494563758E-1,4.675579667E-1,5.485280427E-1
6.577413458E0,-1.224291027E-1,-3.541085422E-1,4.132841825E-1,5.578400850E-1
6.587432458E0,-6.108105555E-2,-3.232885599E-1,3.682836890E-1,4.938413348E-1
6.597451458E0,6.398503482E-2,-1.439392716E-1,3.762201667E-1,4.078654342E-1
6.607470458E0,1.982594877E-1,7.699124515E-2,3.624830246E-1,4.202718399E-1
6.617489458E0,3.232632875E-1,2.829321027E-1,3.071712852E-1,5.281135543E-1
6.627508458E0,4.160344899E-1,4.086783230E-1,2.323668152E-1,6.277714594E-1
6.637527458E0,4.473310113E-1,4.274505079E-1,1.612785608E-1,6.393979547E-1
6.647546458E0,4.209001958E-1,3.656046987E-1,1.259711683E-1,5.715702107E-1
6.657565458E0,3.573586345E-1,2.614311278E-1,8.535067737E-2,4.509281166E-1
6.667584458E0,2.618028224E-1,9.245993197E-2,2.082335390E-2,2.784298276E-1
6.677603458E0,1.776294857E-1,1.365212258E-2,2.500525489E-2,1.798996315E-1
6.687622458E0,7.011155039E-2,-4.900859296E-2,5.706199259E-2,1.028277330E-1
6.697641458E0,-1.027021743E-2,-1.705290824E-1,5.509397388E-2,1.795020648E-1
6.707660458E0,-2.868704312E-2,-2.141426057E-1,6.019632518E-2,2.242846396E-1
6.717679458E0,9.166272357E-4,-1.493567675E-1,7.343462110E-2,1.664359570E-1
6.727698458E0,4.076071084E-2,-3.353641927E-2,7.580430061E-2,9.237109372E-2
6.737717458E0,7.594365627E-2,8.150229603E-2,4.796289653E-2,1.212868609E-1
6.747736458E0,1.155531183E-1,1.709312499E-1,2.742885984E-2,2.081402356E-1
6.757755458E0,1.328864396E-1,2.035456598E-1,1.796041243E-2,2.437462161E-1
6.767774458E0,1.152847931E-1,1.627375185E-1,-1.873479923E-3,1.994432084E-1
6.777793458E0,4.160794243E-2,5.887111649E-2,-9.349714383E-4,7.209648675E-2
6.787812458E0,-5.309459567E-2,-1.405533105E-1,-1.179715851E-3,1.502519914E-1
6.797831458E0,-1.091951281E-1,-3.559623361E-1,2.384729683E-2,3.730971110E-1
6.807850458E0,-1.340080649E-1,-5.353115797E-1,4.371847212E-2,5.535593497E-1
6.817870458E0,-1.365609914E-1,-6.552795172E-1,1.495318115E-2,6.695250164E-1
6.827889458E0,-1.049351543E-1,-7.129755616E-1,-2.712183259E-2,7.211665077E-1
6.837908458E0,-3.308419883E-2,-6.959379911E-1,-8.044073731E-2,7.013522396E-1
6.847927458E0,4.962186515E-2,-6.019060016E-1,-1.117603108E-1,6.142015396E-1
6.857946458E0,1.113565043E-1,-4.395944178E-1,-2.192287333E-2,4.540089598E-1
6.867965458E0,1.666399986E-1,-2.653097212E-1,3.050491400E-2,3.147835559E-1
6.877984458E0,1.884005964E-1,-9.835473448E-2,7.409042865E-2,2.250729440E-1
6.888003458E0,1.987549663E-1,1.379763614E-2,8.328206092E-2,2.159393735E-1
6.898022458E0,1.942455620E-1,5.466676503E-2,8.160156012E-2,2.176662770E-1
6.908041458E0,1.727370769E-1,7.291208208E-2,7.035236806E-2,2.002591449E-1
6.918060458E0,1.305484176E-1,1.327010840E-1,8.772824705E-2,2.057880277E-1
6.928079458E0,9.895880520E-2,1.791343689E-1,1.086473763E-1,2.317028693E-1
6.938098458E0,7.332042605E-2,1.352729052E-1,1.136237085E-1,1.912720338E-1
6.948117458E0,4.227169603E-2,7.717337459E-2,1.161949858E-1,1.457528756E-1
6.958136458E0,-1.096336730E-2,2.358498983E-2,1.259377152E-1,1.285953159E-1
6.968155458E0,-2.835301124E-2,-8.994103968E-2,1.599580050E-1,1.856874988E-1
6.978174458E0,-3.034937382E-2,-1.454187036E-1,2.328504473E-1,2.762010403E-1
6.988193458E0,-5.062926095E-3,-9.310195595E-2,2.450075150E-1,2.621493655E-1
6.998212458E0,3.631160781E-2,-3.710605949E-2,2.813892961E-1,2.861386525E-1
7.008231458E0,7.943643630E-2,4.408493266E-2,2.778829932E-1,2.923569507E-1
7.018250458E0,1.058486849E-1,9.508684278E-2,2.740819454E-1,3.088144501E-1
7.028269458E0,1.194635630E-1,9.085348248E-2,2.456401736E-1,2.878628024E-1
7.038288458E0,1.252464056E-1,8.502862602E-2,2.282730341E-1,2.739071146E-1
7.048307458E0,1.083542481E-1,1.326116025E-1,1.728028506E-1,2.432844125E-1
7.058326458E0,7.712791115E-2,2.053842843E-1,1.578148007E-1,2.702534555E-1
7.068346458E0,4.344424233E-2,2.449194491E-1,1.392043680E-1,2.850452504E-1
7.078365458E0,-1.616001502E-2,2.411058992E-1,8.486115932E-2,2.561144609E-1
7.088384458E0,-8.621499687E-2,1.820977032E-1,5.034632608E-2,2.076712589E-1
7.098403458E0,-1.593840569E-1,8.318065852E-2,2.728264406E-2,1.818423554E-1
7.108422458E0,-2.420565635E-1,-3.221943974E-2,1.769659482E-2,2.448318641E-1
7.118441458E0,-3.299988210E-1,-1.491665393E-1,1.823284477E-2,3.626049020E-1
7.128460458E0,-3.971384466E-1,-2.647029757E-1,1.657902077E-2,4.775578238E-1
7.138479458E0,-4.318631291E-1,-3.266105652E-1,1.636025496E-3,5.414636647E-1
7.148498458E0,-4.390893579E-1,-3.020998836E-1,-1.592938602E-2,5.332143557E-1
7.158517458E0,-4.158693552E-1,-2.528191805E-1,-7.791187149E-3,4.867499987E-1
7.168536458E0,-3.721466660E-1,-2.084173709E-1,-2.498687012E-3,4.265409535E-1
7.178555458E0,-3.211494386E-1,-1.324588954E-1,-1.400303561E-3,3.473964331E-1
7.188574458E0,-2.620043457E-1,-7.259184867E-2,-4.514870234E-3,2.719121875E-1
7.198593458E0,-1.789257526E-1,-4.591470957E-2,-1.755969599E-2,1.855557287E-1
7.208612458E0,-6.833851337E-2,-2.998954058E-2,-3.824047372E-2,8.385617917E-2
7.218631458E0,3.505312651E-2,3.554205224E-2,-4.700610414E-2,6.856772552E-2
7.228650458E0,1.191016957E-1,1.496449262E-1,-7.269708067E-2,2.046061666E-1
7.238669875E0,1.724944115E-1,2.280076444E-1,-7.511468232E-2,2.956078879E-1
7.248688875E0,1.848006099E-1,2.048650384E-1,-8.239709586E-2,2.879413669E-1
7.258707875E0,1.492929757E-1,1.299899518E-1,-9.563703835E-2,2.198459080E-1
7.268726875E0,8.703385293E-2,4.163825139E-2,-8.813970536E-2,1.306799265E-1
7.278745875E0,2.128621750E-2,-1.372197736E-2,-8.315902948E-2,8.692997126E-2
7.288764875E0,-2.548315190E-2,-6.448581815E-2,-8.205407858E-2,1.074275737E-1
7.298783875E0,-4.942385852E-2,-1.430101395E-1,-7.796526700E-2,1.702151598E-1
7.308802875E0,-5.906476825E-2,-1.969319582E-1,-6.053674221E-2,2.143257805E-1
7.318821875E0,-5.007188022E-2,-1.917246729E-1,-5.651182681E-2,2.060561330E-1
7.328841875E0,-3.314243257E-2,-1.510763019E-1,-4.487194866E-2,1.610464580E-1
7.338860875E0,-2.046570554E-2,-1.342576742E-1,-2.323048562E-2,1.377810715E-1
7.348879875E0,-1.992348582E-2,-1.530521363E-1,-5.022719502E-3,1.544251580E-1
7.358898875E0,-3.986390680E-2,-1.729829609E-1,2.487925254E-2,1.792518146E-1
7.368917875E0,-7.829305530E-2,-2.007149905E-1,4.056740180E-2,2.192305271E-1
7.378936875E0,-1.147780344E-1,-2.574829161E-1,5.064519867E-2,2.864199459E-1
7.388955875E0,-1.374907941E-1,-2.935727537E-1,6.764309108E-2,3.311559571E-1
7.398974875E0,-1.312688589E-1,-2.784947157E-1,8.236557990E-2,3.187081874E-1
7.408993875E0,-1.042726636E-1,-2.287064046E-1,1.024242416E-1,2.714224256E-1
7.419012875E0,-6.745684892E-2,-1.652680486E-1,9.779103845E-2,2.035363397E-1
7.429031875E0,-4.447962716E-2,-6.717903912E-2,7.622928172E-2,1.109160219E-1
7.439050875E0,-1.318226382E-2,1.618995704E-2,7.614082843E-2,7.895133021E-2
7.449069875E0,2.173923515E-2,1.085760742E-1,1.357128024E-1,1.751551397E-1
7.459088875E0,7.545475662E-2,2.040303797E-1,8.973108232E-2,2.353157097E-1
7.469107875E0,1.222030893E-1,2.868648171E-1,8.150777221E-2,3.222864181E-1
7.479126875E0,7.077729702E-2,3.834800720E-1,1.187376976E-1,4.076334533E-1
7.489145875E0,-1.320059150E-1,6.361112595E-1,1.623442918E-1,6.696407732E-1
7.499164875E0,-2.634176314E-1,5.307458639E-1,3.225627542E-1,6.746308257E-1
7.509183875E0,-2.793369591E-1,2.491461635E-1,3.614265323E-1,5.203192152E-1
7.519202875E0,-2.783659399E-1,1.299008280E-1,2.715642750E-1,4.100109475E-1
7.529221875E0,-2.508464456E-1,2.399484962E-1,1.347171813E-1,3.723545878E-1
7.539240875E0,-1.861232370E-1,3.520992994E-1,6.682287157E-2,4.038329756E-1
7.549259875E0,-1.108630970E-1,4.238089025E-1,6.107657403E-2,4.423064096E-1
7.559278875E0,-7.346260548E-2,5.040963292E-1,8.013324440E-2,5.156851757E-1
7.569298875E0,-1.279626042E-1,6.516903043E-1,6.857112795E-2,6.676650959E-1
7.579317875E0,-2.114756852E-1,7.130786777E-1,2.523027547E-2,7.442040935E-1
7.589336875E0,-3.218924701E-1,7.681294084E-1,-2.223364636E-2,8.331457768E-1
7.599355875E0,-3.124426305E-1,6.181146502E-1,-1.342700720E-1,7.054888875E-1
7.609374875E0,-2.489145398E-1,5.205705166E-1,-2.404143512E-1,6.251009288E-1
7.619393875E0,-1.697247773E-1,4.984678924E-1,-2.521651387E-1,5.838355907E-1
7.629412875E0,-1.191321760E-1,5.591490269E-1,-2.003570348E-1,6.057912603E-1
7.639431875E0,-8.936949819E-2,5.766676664E-1,-1.575852334E-1,6.044548044E-1
7.649450875E0,-1.053820178E-1,5.698736906E-1,-1.037813947E-1,5.887545930E-1
7.659469875E0,-1.387702376E-1,5.353025794E-1,-7.128243148E-2,5.575726100E-1
7.669488875E0,-1.292853951E-1,3.844123781E-1,-1.028760448E-1,4.184149500E-1
7.679507875E0,-8.234658092E-2,2.728078067E-1,-1.154334620E-1,3.074572213E-1
7.689526875E0,4.211971536E-2,2.089143097E-1,-7.710497826E-2,2.266372364E-1
7.699545875E0,1.867991984E-1,2.098017037E-1,-1.448754221E-2,2.812838144E-1
7.709564875E0,3.315856755E-1,2.083233744E-1,1.998441480E-2,3.921059364E-1
7.719583875E0,4.179671109E-1,1.674830317E-1,1.945281625E-1,4.904979895E-1
7.729602875E0,4.677495658E-1,7.211416960E-2,4.057211280E-1,6.233776893E-1
7.739621875E0,4.317791462E-1,-9.046324342E-2,6.533392072E-1,7.883330192E-1
7.749640875E0,3.189833462E-1,-3.126609027E-1,8.682336807E-1,9.763897478E-1
7.759659875E0,1.865589023E-1,-5.218900442E-1,1.011605382E0,1.153481205E0
7.769678875E0,6.376187503E-2,-6.738793254E-1,1.094452143E0,1.286858351E0
7.779697875E0,-1.743366476E-3,-7.996487021E-1,1.151593447E0,1.402001624E0
7.789716875E0,-9.715822525E-4,-8.511675596E-1,1.194258094E0,1.466539994E0
7.799735875E0,6.636160612E-2,-7.151333690E-1,1.187206388E0,1.387544091E0
7.809754875E0,2.018131763E-1,-3.122678995E-1,1.034456015E0,1.099244761E0
7.819774875E0,2.842351198E-1,2.134175785E-2,8.519682884E-1,8.983846829E-1
7.829793875E0,2.583127320E-1,5.953921005E-2,6.539202332E-1,7.056075797E-1
7.839812875E0,1.894033551E-1,-2.719950080E-1,3.835595846E-1,5.069249158E-1
7.849831875E0,1.152787954E-1,-5.734624267E-1,7.104295492E-2,5.892329394E-1
7.859850875E0,4.425705224E-2,-6.945834756E-1,-2.462935746E-1,7.382854571E-1
7.869869875E0,5.342412274E-3,-6.143584251E-1,-4.344067574E-1,7.524453779E-1
7.879888875E0,3.844384849E-2,-4.930394590E-1,-4.818969071E-1,6.905001569E-1
7.889907875E0,1.139215603E-1,-4.045580626E-1,-5.097378492E-1,6.606648340E-1
7.899926875E0,1.870040894E-1,-3.424192965E-1,-5.362325907E-1,6.631492256E-1
7.909945875E0,2.754913270E-1,-3.851664960E-1,-5.519697666E-1,7.272683990E-1
7.919964875E0,3.469884992E-1,-3.776205778E-1,-5.949266553E-1,7.854527640E-1
7.929983875E0,4.030946493E-1,-3.934682310E-1,-6.487912536E-1,8.592046530E-1
7.940002875E0,3.877099454E-1,-4.094862342E-1,-6.944197416E-1,8.945483527E-1
7.950021875E0,3.496107757E-1,-4.861144423E-1,-7.159506083E-1,9.333382126E-1
7.960040875E0,3.251130581E-1,-4.936904311E-1,-7.229657769E-1,9.338673658E-1
7.970059875E0,2.929617763E-1,-2.855659723E-1,-6.211025119E-1,7.437357442E-1
7.980078875E0,2.895135880E-1,-4.948469624E-2,-4.039392173E-1,4.994334231E-1
7.990097875E0,2.078043222E-1,2.900116146E-1,-2.160425633E-1,4.170896332E-1
8.000116875E0,1.411126703E-1,5.193470716E-1,-8.981399238E-2,5.456195742E-1
8.010135875E0,-2.443111986E-1,8.755000830E-1,3.788085654E-2,9.097380482E-1
8.020154875E0,-8.546447754E-1,8.227240443E-1,3.357135057E-1,1.232881220E0
8.030173875E0,-1.373680830E0,8.257653713E-1,4.411528409E-1,1.662378808E0
8.040192875E0,-1.525695920E0,7.265183926E-1,4.773939550E-1,1.755984625E0
8.050211875E0,-1.101727605E0,3.949798942E-1,3.843550682E-1,1.231885405E0
8.060231875E0,-5.652176142E-1,6.499450207E-1,3.274167180E-1,9.214668678E-1
8.070250875E0,1.145499498E-1,6.464450955E-1,3.084827065E-1,7.253788891E-1
8.080269875E0,5.864543319E-1,8.044337034E-1,2.739512026E-1,1.032517084E0
8.090288875E0,7.671863437E-1,9.187698960E-1,1.834777445E-1,1.210940581E0
8.100307875E0,7.373747230E-1,8.551271558E-1,2.300294302E-2,1.129377293E0
8.110326875E0,6.485902667E-1,6.447185278E-1,-1.172835976E-1,9.220014948E-1
8.120345875E0,5.328746438E-1,3.991245329E-1,-1.547886282E-1,6.835314903E-1
8.130364875E0,3.980958462E-1,1.771737784E-1,-1.133322716E-1,4.502388858E-1
8.140383875E0,2.848972082E-1,-3.570683673E-2,-5.908945203E-2,2.931432428E-1
8.150402875E0,1.871999204E-1,-2.087289542E-1,-1.922326162E-2,2.810357990E-1
8.160421875E0,9.031464159E-2,-3.126553297E-1,-1.002742536E-2,3.255927501E-1
8.170440875E0,8.592080325E-3,-3.170135915E-1,-2.505431138E-2,3.181181535E-1
8.180459875E0,-5.785779282E-2,-2.321716249E-1,-4.466881603E-2,2.434060203E-1
8.190478875E0,-6.782148778E-2,-1.128476337E-1,-7.939377427E-2,1.537456146E-1
8.200497875E0,1.204648148E-2,3.660437837E-2,-1.357317716E-1,1.410961093E-1
8.210516875E0,1.641824841E-1,2.509694099E-1,-1.673948914E-1,3.434568131E-1
8.220535875E0,3.472569287E-1,4.839543998E-1,-1.900888085E-1,6.252463441E-1
8.230554875E0,4.355034232E-1,6.515777111E-1,-2.210603058E-1,8.142999472E-1
8.240573375E0,4.103769958E-1,6.258035302E-1,-1.898320615E-1,7.720592909E-1
8.250592375E0,3.029618561E-1,4.722704291E-1,-1.916067898E-1,5.929067434E-1
8.260611375E0,1.131284609E-1,3.298941255E-1,-2.436500341E-1,4.254333341E-1
8.270630375E0,-7.028876990E-2,1.660955846E-1,-3.053879738E-1,3.546689568E-1
8.280649375E0,-1.773162186E-1,-1.736318879E-2,-3.339285851E-1,3.784849028E-1
8.290668375E0,-2.350612730E-1,-1.282862425E-1,-3.323027194E-1,4.267742487E-1
8.300688375E0,-2.718755305E-1,-2.691493928E-1,-3.219569325E-1,5.000139660E-1
8.310707375E0,-3.162291348E-1,-5.747657418E-1,-2.722176015E-1,7.102527341E-1
8.320726375E0,-3.649407625E-1,-8.526562452E-1,-1.328085810E-1,9.369325226E-1
8.330745375E0,-4.197366238E-1,-9.479108453E-1,7.979636639E-2,1.039750578E0
8.340764375E0,-5.064104795E-1,-7.850604057E-1,2.662701607E-1,9.714274100E-1
8.350783375E0,-6.148917079E-1,-5.318542123E-1,3.719569147E-1,8.940428748E-1
8.360802375E0,-7.223536372E-1,-2.369566113E-1,4.049404562E-1,8.613477729E-1
8.370821375E0,-8.090738654E-1,8.823055029E-2,4.135456681E-1,9.129102745E-1
8.380840375E0,-8.048552275E-1,3.369466364E-1,4.040836692E-1,9.615656944E-1
8.390859375E0,-6.399871707E-1,4.019080698E-1,3.634749651E-1,8.385867430E-1
8.400878375E0,-3.420848548E-1,3.776501715E-1,2.979233563E-1,5.902542047E-1
8.410897375E0,-4.802313820E-2,4.181877375E-1,2.518860996E-1,4.905444044E-1
8.420916375E0,1.699438244E-1,3.684414923E-1,1.990147978E-1,4.519257975E-1
8.430935375E0,2.846219242E-1,2.376533598E-1,1.354810894E-1,3.947706736E-1
8.440954375E0,3.153597414E-1,9.810878336E-2,8.077837527E-2,3.400033026E-1
8.450973375E0,2.935900092E-1,2.405692451E-2,5.339682102E-2,2.993744305E-1
8.460992375E0,2.495691478E-1,3.076938540E-2,4.609604180E-2,2.556488993E-1
8.471011375E0,1.852442324E-1,1.518260390E-1,5.490231514E-2,2.457251228E-1
8.481030375E0,9.125878662E-2,3.703642786E-1,8.794241399E-2,3.914482509E-1
8.491049375E0,-4.765089229E-2,6.127212644E-1,1.303340793E-1,6.282395463E-1
8.501068375E0,-1.353387162E-2,5.049660206E-1,1.365957260E-1,5.232898241E-1
8.511087375E0,4.413954541E-2,5.936671495E-1,1.648800969E-1,6.177171119E-1
8.521107375E0,7.037363201E-2,6.894852519E-1,2.409713864E-1,7.337639741E-1
8.531126375E0,1.352887154E-1,6.220193505E-1,3.241924942E-1,7.143611707E-1
8.541145375E0,1.600055844E-1,5.375367403E-1,4.034018517E-1,6.908549689E-1
8.551164375E0,1.672512442E-1,4.389952421E-1,4.553625286E-1,6.542513536E-1
8.561183375E0,1.368891150E-1,3.150483370E-1,4.499398470E-1,5.660741562E-1
8.571202375E0,8.416225761E-2,1.927823275E-1,4.111240208E-1,4.618130270E-1
8.581221375E0,3.628227115E-2,1.239136755E-1,3.592398167E-1,3.817384551E-1
8.591240375E0,2.153261751E-2,9.368573129E-2,3.144840598E-1,3.288478276E-1
8.601259375E0,5.820333213E-2,9.500961751E-2,2.950498760E-1,3.153868808E-1
8.611278375E0,1.474503875E-1,7.789561152E-2,2.986270189E-1,3.420342666E-1
8.621297375E0,2.330009639E-1,8.467310667E-2,3.499017954E-1,4.288242654E-1
8.631316375E0,2.603338063E-1,1.133375019E-1,4.194798172E-1,5.065396303E-1
8.641335375E0,2.494743913E-1,8.101905137E-2,4.627603889E-1,5.319292586E-1
8.651354375E0,-9.849504381E-2,-9.332825243E-2,4.947039187E-1,5.129750516E-1
8.661373375E0,1.656202823E-1,9.387269616E-2,4.130078256E-1,4.547720583E-1
8.671392375E0,1.072243452E-1,5.308889151E-1,2.847462595E-1,6.118991196E-1
8.681411375E0,1.236840710E-1,5.297940969E-1,2.540883422E-1,6.004501813E-1
8.691430375E0,1.286311597E-1,4.873049557E-1,2.593986690E-1,5.668331012E-1
8.701449375E0,6.979474425E-2,4.066085219E-1,2.767497003E-1,4.967818365E-1
8.711468375E0,4.295673221E-2,2.456816882E-1,2.930216193E-1,3.847940256E-1
8.721487375E0,8.329710364E-2,7.746816427E-2,2.962666154E-1,3.173541103E-1
8.731506375E0,1.893931776E-1,-1.309182681E-2,2.821678519E-1,3.400880303E-1
8.741525375E0,3.332958817E-1,-4.829321802E-2,2.710870206E-1,4.323269046E-1
8.751544375E0,4.355098605E-1,-2.373407781E-2,2.527386248E-1,5.040922113E-1
8.761564375E0,4.301785231E-1,4.023018293E-3,2.290644348E-1,4.873810231E-1
8.771583375E0,3.179214895E-1,-2.542355470E-2,1.959248632E-1,3.743086729E-1
8.781602375E0,1.347832829E-1,-1.378059685E-1,1.428436488E-1,2.399194163E-1
8.791621375E0,-7.345407456E-2,-2.418849617E-1,1.077770144E-1,2.748085163E-1
8.801640375E0,-2.740299702E-1,-2.896775603E-1,1.241951212E-1,4.176481074E-1
8.811659375E0,-4.137420654E-1,-3.556155562E-1,1.633065641E-1,5.694856929E-1
8.821678375E0,-5.059698820E-1,-4.342113435E-1,1.411066055E-1,6.815101514E-1
8.831697375E0,-5.413859487E-1,-4.840425551E-1,1.124946699E-1,7.348816172E-1
8.841716375E0,-4.881530404E-1,-5.392234921E-1,1.068155915E-1,7.351632036E-1
8.851735375E0,-3.794726431E-1,-6.076411605E-1,9.236048907E-2,7.223279911E-1
8.861754375E0,-2.562372088E-1,-5.869670510E-1,5.733439699E-2,6.430202635E-1
8.871773375E0,-1.530434638E-1,-5.111937523E-1,4.596085753E-3,5.336314067E-1
8.881792375E0,-7.981733233E-2,-4.396361709E-1,-6.281332672E-2,4.512164484E-1
8.891811375E0,-5.573543161E-2,-3.260270655E-1,-1.297601312E-1,3.552995602E-1
8.901830375E0,-4.732399434E-2,-1.614657640E-1,-1.819875538E-1,2.478512117E-1
8.911849375E0,-7.173213363E-2,6.996611506E-2,-2.658462226E-1,2.841038021E-1
8.921868375E0,-1.177169606E-1,2.522867024E-1,-3.254203200E-1,4.282572214E-1
8.931887375E0,-1.673369855E-1,3.620760441E-1,-3.658729196E-1,5.412612324E-1
8.941906375E0,-2.104188204E-1,4.106285870E-1,-3.678241074E-1,5.900732924E-1
8.951925375E0,-2.270537168E-1,4.108959734E-1,-3.158908784E-1,5.658409126E-1
8.961944375E0,-2.502184510E-1,3.401957154E-1,-2.304852903E-1,4.811089971E-1
8.971963375E0,-2.604713738E-1,1.643405557E-1,-1.401018649E-1,3.383514258E-1
8.981983375E0,-2.398173213E-1,-5.189109594E-2,-7.004996389E-2,2.551705917E-1
8.992001375E0,-1.732324362E-1,-2.692167461E-1,-3.230232000E-2,3.217616714E-1
9.002021375E0,-6.864164770E-2,-4.249635041E-1,2.049932489E-3,4.304763150E-1
9.012040375E0,4.852039367E-2,-4.859916866E-1,1.097498462E-2,4.885310618E-1
9.022059375E0,1.650972217E-1,-4.549624324E-1,-1.120051462E-2,4.841212235E-1
9.032078375E0,2.635412216E-1,-3.497121930E-1,-2.661435865E-2,4.387036785E-1
9.042097375E0,3.343526721E-1,-2.236221135E-1,-3.124986216E-2,4.034539786E-1
9.052116375E0,3.674240708E-1,-1.160341352E-1,-2.291363664E-2,3.859914547E-1
9.062135375E0,3.698381484E-1,-3.090514243E-2,-1.339935698E-2,3.713689898E-1
9.072154375E0,3.400088847E-1,4.494354874E-2,-3.664704273E-3,3.429859972E-1
9.082173375E0,2.872392535E-1,1.001159549E-1,-7.025631145E-3,3.042678962E-1
9.092192375E0,2.330620289E-1,1.285249442E-1,-7.144674659E-3,2.662472854E-1
9.102211375E0,1.899415106E-1,1.585774422E-1,-1.330912765E-2,2.477936954E-1
9.112230375E0,1.657008827E-1,1.936105192E-1,-2.794186585E-2,2.563641229E-1
9.122249375E0,1.781598181E-1,2.353555709E-1,-4.157373682E-2,2.980965299E-1
9.132268375E0,2.136352509E-1,2.737184167E-1,-4.760846123E-2,3.504687684E-1
9.142287375E0,2.625763714E-1,3.225101829E-1,-3.703759983E-2,4.175295830E-1
9.152306375E0,2.918197215E-1,3.462860882E-1,-3.200982139E-2,4.539795517E-1
9.162325375E0,2.977955639E-1,3.199685216E-1,-2.801918983E-2,4.380035704E-1
9.172344375E0,2.817241848E-1,2.558883429E-1,-2.191176265E-2,3.812184225E-1
9.182363375E0,2.492217124E-1,1.641885042E-1,-5.586558953E-3,2.984971297E-1
9.192382375E0,1.874289215E-1,6.280010194E-2,1.046511251E-2,1.979468918E-1
9.202401375E0,1.182332188E-1,-4.634399712E-2,2.139260061E-2,1.287808350E-1
9.212420375E0,6.285624951E-2,-1.565605253E-1,2.261605673E-2,1.702163100E-1
9.222440375E0,2.828448080E-2,-2.364441454E-1,1.513163932E-2,2.386101680E-1
9.232460833E0,1.068817545E-2,-2.689885199E-1,4.652632866E-3,2.692409849E-1
9.242479833E0,1.834443957E-2,-2.411249429E-1,-1.747516915E-2,2.424523419E-1
9.252498833E0,3.514259309E-2,-1.713136435E-1,-4.322580621E-2,1.801439330E-1
9.262517833E0,4.830237851E-2,-8.252778649E-2,-6.952311844E-2,1.182261363E-1
9.272536833E0,5.988526717E-2,1.395703293E-5,-7.693868876E-2,9.749772944E-2
9.282555833E0,7.791769505E-2,6.673567742E-2,-7.548523694E-2,1.273689084E-1
9.292574833E0,1.037998945E-1,1.229579374E-1,-4.502453282E-2,1.670936295E-1
9.302593833E0,1.196783185E-1,1.619322300E-1,-5.584233440E-3,2.014351774E-1
9.312612833E0,1.266326308E-1,1.414605230E-1,3.237140551E-2,1.926001315E-1
9.322631833E0,1.107320040E-1,9.483687580E-2,5.081557110E-2,1.543950517E-1
9.332650833E0,8.009233326E-2,2.931911871E-2,3.525791690E-2,9.229037475E-2
9.342669833E0,4.850034788E-2,-6.112401932E-2,8.141724393E-3,7.845200545E-2
9.352688833E0,9.661871940E-3,-1.473001838E-1,-1.402802579E-2,1.482817636E-1
9.362707833E0,-2.786313184E-2,-2.122642696E-1,-3.087651357E-2,2.163003314E-1
9.372726833E0,-4.677716643E-2,-2.379195541E-1,-4.330841824E-2,2.463116656E-1
9.382745833E0,-3.892121091E-2,-2.003774494E-1,-4.277662188E-2,2.085565205E-1
9.392764833E0,-4.195987713E-3,-8.354909718E-2,-2.980356663E-2,8.880490154E-2
9.402783833E0,5.192782730E-2,7.199996710E-2,-2.773601003E-2,9.300419755E-2
9.412802833E0,1.154146641E-1,1.679099798E-1,-4.209124669E-2,2.080528276E-1
9.422821833E0,1.775685996E-1,1.986777186E-1,-4.476047680E-2,2.701979714E-1
9.432840833E0,2.333133519E-1,1.535360664E-1,-2.985156700E-2,2.808906547E-1
9.442859833E0,2.531650960E-1,5.303262174E-2,-1.475314517E-2,2.590804511E-1
9.452879833E0,2.341296077E-1,-4.746788740E-2,-1.385219768E-2,2.392942893E-1
9.462898833E0,1.906538904E-1,-1.447331607E-1,-2.334877104E-2,2.405031369E-1
9.472917833E0,1.241859123E-1,-2.009548843E-1,-4.149821401E-2,2.398480938E-1
9.482936833E0,4.777955264E-2,-2.064167410E-1,-6.172668189E-2,2.206828944E-1
9.492955833E0,-1.487530582E-2,-1.898335069E-1,-6.854251027E-2,2.023761616E-1
9.502974833E0,-6.383820623E-2,-1.404001415E-1,-7.726916671E-2,1.725051896E-1
9.512993833E0,-8.491339535E-2,-8.200793713E-2,-7.361078262E-2,1.391191352E-1
9.523012833E0,-7.855130732E-2,-5.934763327E-2,-7.344243675E-2,1.228260598E-1
9.533031833E0,-3.839057311E-2,-7.301416993E-2,-6.224411726E-2,1.033403854E-1
9.543050833E0,2.427111194E-2,-1.022232547E-1,-5.028592423E-2,1.164789889E-1
9.553069833E0,6.987614930E-2,-1.042872071E-1,-2.713133767E-2,1.284313330E-1
9.563088833E0,-4.442497194E-1,2.863506079E-1,4.714046419E-2,5.306380190E-1
9.573107833E0,-5.227133632E-1,-8.370333165E-2,-6.455544382E-2,5.332943963E-1
9.583126833E0,-5.213398933E-1,-2.097593248E-1,-1.821373254E-1,5.907353587E-1
9.593145833E0,-3.064086437E-1,-3.429647684E-1,-8.838180453E-2,4.683187298E-1
9.603164833E0,-5.746496469E-2,-4.598751366E-1,5.159226432E-2,4.663144059E-1
9.613183833E0,1.109378934E-1,-4.307460189E-1,8.101539314E-2,4.521203854E-1
9.623202833E0,1.714942455E-1,-3.241942525E-1,5.385198072E-2,3.706915502E-1
9.633221833E0,1.638935804E-1,-2.030766308E-1,2.489835955E-2,2.621471953E-1
9.643240833E0,1.219057590E-1,-1.035025790E-1,1.028382871E-2,1.602484168E-1
9.653259833E0,6.756422669E-2,-1.846997812E-2,1.646822132E-2,7.195322879E-2
9.663278833E0,1.531040855E-2,5.072840303E-2,3.600797057E-2,6.406522792E-2
9.673298833E0,-2.636060677E-2,9.404791892E-2,5.781260133E-2,1.134997335E-1
9.683317833E0,-4.251324758E-2,8.066426963E-2,6.237244606E-2,1.104736287E-1
9.693336833E0,-4.070229828E-2,2.031651139E-2,5.130434781E-2,6.856802334E-2
9.703355833E0,-3.082546592E-2,-4.135397449E-2,2.713188902E-2,5.827949860E-2
9.713374833E0,-2.068361826E-2,-8.197836578E-2,-1.320648007E-2,8.557263369E-2
9.723393833E0,-1.308427937E-2,-9.060808271E-2,-6.173949689E-2,1.104209604E-1
9.733412833E0,-1.658713631E-2,-7.356651872E-2,-9.706260264E-2,1.229158842E-1
9.743431833E0,-8.891465142E-3,-6.393307447E-2,-1.101382151E-1,1.276594007E-1
9.753450833E0,1.612041146E-2,-9.457460791E-2,-1.042638198E-1,1.416868668E-1
9.763469833E0,4.042238370E-2,-1.372680515E-1,-7.915166020E-2,1.635282006E-1
9.773488833E0,6.258068234E-2,-1.558260173E-1,-5.344869569E-2,1.762238705E-1
9.783507833E0,6.820201129E-2,-1.515883952E-1,-2.709930018E-2,1.684189063E-1
9.793526833E0,7.234083116E-2,-1.438274235E-1,1.711307908E-3,1.610045098E-1
9.803545833E0,7.443657517E-2,-1.489377022E-1,2.943235263E-2,1.690843169E-1
9.813564833E0,6.665214896E-2,-1.433679610E-1,5.401386321E-2,1.670759667E-1
9.823583833E0,4.988892749E-2,-1.249133945E-1,6.621611118E-2,1.499227620E-1
9.833602833E0,2.945688926E-2,-9.832599759E-2,8.065550774E-2,1.305412619E-1
9.843621833E0,-1.454615500E-3,-5.950190872E-2,8.904544264E-2,1.071059471E-1
9.853640833E0,-3.281892836E-2,-6.270808727E-2,8.009642363E-2,1.068869653E-1
9.863659833E0,-5.888430029E-2,-9.934169799E-2,5.258673802E-2,1.268916814E-1
9.873678833E0,-7.948678732E-2,-1.079232022E-1,1.699359156E-2,1.351086566E-1
9.883697833E0,-9.238793701E-2,-9.579356015E-2,-1.245207805E-2,1.336674654E-1
9.893717833E0,-8.304344118E-2,-8.230996877E-2,-2.108524553E-2,1.188096446E-1
9.903736833E0,-5.952225626E-2,-9.073996544E-2,6.169412518E-5,1.085202475E-1
9.913755833E0,-2.864770032E-2,-8.797320724E-2,2.710103430E-2,9.640768634E-2
9.923774833E0,-1.041401550E-2,-6.628392637E-2,4.230979830E-2,7.932294527E-2
9.933793833E0,-6.943650078E-3,-3.930930421E-2,3.711290658E-2,5.450507782E-2
9.943812833E0,-1.650968008E-2,-6.031729281E-3,2.353324927E-2,2.937286359E-2
9.953831833E0,-2.175104804E-2,3.503954038E-2,1.084595080E-2,4.264401634E-2
9.963850833E0,-1.083247922E-2,5.600324646E-2,2.057261998E-3,5.707835445E-2
9.973869833E0,8.827509359E-3,5.966296420E-2,4.188589752E-3,6.045774146E-2
9.983888833E0,2.902471647E-2,6.404455751E-2,7.364373654E-3,7.069917618E-2
9.993907833E0,3.497528285E-2,8.247389644E-2,8.023239672E-3,8.994212795E-2
1.000392683E1,3.606332839E-2,8.259718120E-2,7.039845455E-3,9.040142378E-2
1.001394583E1,3.067096137E-2,5.542734638E-2,6.018523593E-3,6.363270561E-2
1.002396483E1,2.546650916E-2,1.570809446E-2,1.348582935E-2,3.282003830E-2
1.003398383E1,2.973875217E-2,-5.347122438E-3,1.435908023E-2,3.345397262E-2
1.004400283E1,3.148539737E-2,3.423312679E-3,1.771146804E-2,3.628698689E-2
1.005402183E1,2.888029441E-2,2.174186707E-2,1.759775169E-2,4.020523664E-2
1.006404083E1,1.897853054E-2,5.179775879E-2,1.174540352E-2,5.640165725E-2
1.007405983E1,8.283808827E-3,7.494223118E-2,2.229130128E-3,7.543161488E-2
1.008407883E1,-5.872770678E-3,6.953044236E-2,5.427583819E-4,6.978012924E-2
1.009409783E1,-9.260045364E-3,2.847275883E-2,1.464259811E-2,3.332944816E-2
1.010411683E1,-1.953147724E-2,4.280509427E-3,3.432665393E-2,3.972556525E-2
1.011413683E1,-2.549296431E-2,1.709164679E-2,4.201493412E-2,5.203143577E-2
1.012415583E1,-1.020650379E-2,9.070359170E-2,3.953634575E-2,9.947078417E-2
1.013417483E1,3.842361644E-2,2.045228183E-1,3.430243582E-2,2.109090198E-1
1.014419383E1,1.062265784E-1,3.275435269E-1,3.878590465E-2,3.465157924E-1
1.015421283E1,1.659373194E-1,4.592908919E-1,2.493666485E-2,4.889837979E-1
1.016423183E1,2.062610239E-1,5.750049949E-1,-5.619873991E-5,6.108799860E-1
1.017425083E1,2.258600295E-1,6.422402263E-1,-3.457875550E-2,6.816751070E-1
1.018426983E1,2.307813913E-1,6.554330587E-1,-5.602632090E-2,6.971309014E-1
1.019428883E1,2.382600754E-1,6.275372505E-1,-6.406320632E-2,6.742958985E-1
1.020430783E1,2.491132319E-1,5.924654603E-1,-7.983376831E-2,6.476466278E-1
1.021432683E1,2.710534334E-1,5.962271690E-1,-9.479753673E-2,6.617729020E-1
1.022434583E1,3.072906733E-1,5.881799459E-1,-1.060403213E-1,6.720325561E-1
1.023436383E1,3.329558372E-1,5.693705678E-1,-1.156652495E-1,6.696423545E-1
1.024438283E1,3.385027349E-1,4.809746742E-1,-1.169748679E-1,5.996697912E-1
1.025440183E1,3.063277602E-1,3.515431881E-1,-1.114773005E-1,4.794230890E-1
1.026442083E1,2.441046238E-1,1.866741329E-1,-1.107237116E-1,3.266405357E-1
1.027443983E1,1.715760976E-1,-7.815723307E-3,-1.109380946E-1,2.044668766E-1
1.028445883E1,1.103503555E-1,-1.746522188E-1,-1.102307960E-1,2.341611131E-1
1.029447783E1,7.862199098E-2,-2.401643842E-1,-1.073388681E-1,2.745577927E-1
1.030449683E1,7.353898138E-2,-2.094258517E-1,-9.868496656E-2,2.429112837E-1
1.031451583E1,8.028822392E-2,-1.300492734E-1,-8.162582666E-2,1.732679658E-1
1.032453583E1,8.767268062E-2,-5.408361927E-2,-5.355496705E-2,1.161019866E-1
1.033455483E1,8.614110202E-2,-1.416283473E-2,-1.473726425E-2,8.853283177E-2
1.034457383E1,-3.875385523E-1,1.738643050E-1,4.904001579E-2,4.275743786E-1
1.035459283E1,-5.990489721E-1,6.747049838E-2,1.236506030E-1,6.153872039E-1
1.036461183E1,-5.268858075E-1,-1.338027418E-1,1.245091259E-1,5.576866058E-1
1.037463083E1,-3.278790116E-1,-2.683128715E-1,1.126511395E-1,4.383910611E-1
1.038464983E1,-1.063055098E-1,-2.606021762E-1,8.346629143E-2,2.935659678E-1
1.039466883E1,3.602899611E-2,-1.600747705E-1,6.049573049E-2,1.748763966E-1
1.040468783E1,9.160203487E-2,-7.586055249E-2,3.389317542E-2,1.236709487E-1
1.041470683E1,8.095019311E-2,-2.625011653E-2,1.963647455E-2,8.733609514E-2
1.042472583E1,4.973369464E-2,4.597529769E-3,2.927328460E-2,5.789216574E-2
1.043474483E1,2.324163169E-2,2.926745638E-2,6.681959331E-2,7.656118793E-2
1.044476383E1,-5.473992787E-4,7.416358590E-2,1.043149531E-1,1.279927598E-1
1.045478283E1,-1.320114173E-2,1.016729698E-1,1.145090014E-1,1.537009249E-1
1.046480183E1,-1.546025835E-2,8.223634213E-2,1.017313227E-1,1.317235650E-1
1.047482083E1,-6.936545018E-3,2.527478896E-2,9.026668221E-2,9.399470480E-2
1.048483983E1,-1.187247690E-3,-5.287726596E-2,9.080147743E-2,1.050824587E-1
1.049485883E1,-8.327184245E-3,-1.072592884E-1,9.910547733E-2,1.462730070E-1
1.050487783E1,-2.483287267E-2,-1.213452443E-1,1.016519591E-1,1.602325207E-1
1.051489683E1,-4.598928988E-2,-8.427377045E-2,9.846548736E-2,1.375228540E-1
1.052491583E1,-6.521613151E-2,-2.011752315E-2,8.040217310E-2,1.054626379E-1
1.053493583E1,-7.403598726E-2,3.928694502E-2,5.232845247E-2,9.880818992E-2
1.054495483E1,-6.933785975E-2,7.947408408E-2,1.214611344E-2,1.061668352E-1
1.055497383E1,-6.499504298E-2,9.168787301E-2,-2.613842487E-2,1.153873430E-1
1.056499283E1,-6.139566749E-2,8.385050297E-2,-6.068804860E-2,1.203468906E-1
1.057501183E1,-5.954743922E-2,7.253153622E-2,-8.314036578E-2,1.253756024E-1
1.058503083E1,-6.041730195E-2,6.807769090E-2,-8.393885940E-2,1.238166164E-1
1.059504983E1,-5.801273137E-2,6.797569245E-2,-7.450194657E-2,1.163473756E-1
1.060506883E1,-4.451741278E-2,5.988949537E-2,-5.679863319E-2,9.377972291E-2
1.061508783E1,-2.306059003E-2,3.520199284E-2,-4.802591354E-2,6.385498793E-2
1.062510683E1,-9.952639230E-4,3.092847019E-2,-5.046255514E-2,5.919485020E-2
1.063512583E1,1.853848994E-2,3.746173531E-2,-6.666096300E-2,7.868126339E-2
1.064514483E1,3.189133480E-2,6.681852043E-2,-8.738706261E-2,1.145350192E-1
1.065516383E1,2.904814482E-2,1.052870825E-1,-9.953853488E-2,1.477737608E-1
1.066518283E1,-1.277585700E-2,1.711688787E-1,3.117457964E-2,1.744530366E-1
1.067520183E1,-3.746655583E-2,1.377557963E-1,2.065956742E-1,2.511218326E-1
1.068522083E1,-7.548703253E-2,1.047299132E-1,2.640412450E-1,2.939122758E-1
1.069523983E1,-1.306773275E-1,1.128219217E-1,2.430699021E-1,2.981414551E-1
1.070525883E1,-1.587993652E-1,7.360103726E-2,1.448212564E-1,2.271729459E-1
1.071527783E1,-1.455307007E-1,-2.622107863E-1,2.883525938E-2,3.012725568E-1
1.072529683E1,-2.561712563E-1,-1.048829705E-1,-4.171999916E-2,2.799369722E-1
1.073531583E1,-2.210137993E-1,8.706709370E-3,-8.871519566E-2,2.383134327E-1
1.074533483E1,-7.500686496E-2,-1.776037663E-1,-9.684175998E-2,2.157485900E-1
1.075535483E1,2.965775691E-2,-3.019819260E-1,-7.904119045E-2,3.135604821E-1
1.076537383E1,-1.139215752E-2,-1.861167997E-1,-1.425932944E-1,2.347383479E-1
1.077539283E1,-4.376687482E-2,-1.673606932E-1,-1.757323444E-1,2.465907497E-1
1.078541183E1,-8.318113536E-2,-1.623230428E-1,-1.632222980E-1,2.447639476E-1
1.079543083E1,-1.127185151E-1,-1.584268361E-1,-1.186860055E-1,2.277957286E-1
1.080544983E1,-1.303903013E-1,-1.827809364E-1,-8.651287854E-2,2.406137559E-1
1.081546883E1,-1.283716261E-1,-2.056609541E-1,-7.046227902E-2,2.524690777E-1
1.082548783E1,-1.073578149E-1,-2.310571373E-1,-5.994613841E-2,2.617377325E-1
1.083550683E1,-8.363357186E-2,-2.594280541E-1,-5.097980797E-2,2.773020563E-1
1.084552583E1,-6.630852073E-2,-2.827320695E-1,-5.712020770E-2,2.959678381E-1
1.085554483E1,-5.252825841E-2,-3.065138161E-1,-6.834649295E-2,3.184041151E-1
1.086556383E1,-5.117946118E-2,-3.110802770E-1,-8.975525945E-2,3.277899977E-1
1.087558283E1,-5.118425190E-2,-3.153005838E-1,-1.058215722E-1,3.365003580E-1
1.088560183E1,-5.147372559E-2,-3.285072446E-1,-1.101837754E-1,3.502956159E-1
1.089562083E1,-4.333696887E-2,-3.398243487E-1,-1.008816212E-1,3.571215232E-1
1.090563983E1,-4.264855757E-2,-3.334066272E-1,-9.375399351E-2,3.489537073E-1
1.091565883E1,-4.187757149E-2,-3.106435239E-1,-7.173897326E-2,3.215580978E-1
1.092567783E1,-5.175589025E-2,-2.982755601E-1,-4.593629390E-2,3.061978528E-1
1.093569683E1,-7.587055117E-2,-2.693429887E-1,-1.980988495E-2,2.805252531E-1
1.094571583E1,-1.070375368E-1,-2.051972598E-1,1.362843998E-2,2.318376244E-1
1.095573583E1,-1.368990391E-1,-1.228243560E-1,3.348097578E-2,1.869442299E-1
1.096575483E1,-1.561159492E-1,-8.733953349E-3,3.564918041E-2,1.603724901E-1
1.097577383E1,-1.462896913E-1,1.102891043E-1,2.992977388E-2,1.856344571E-1
1.098579283E1,-1.063140780E-1,2.045425773E-1,2.019963413E-2,2.314052167E-1
1.099581183E1,-3.361537308E-2,2.560169399E-1,2.207024023E-2,2.591558649E-1
1.100583083E1,3.421777859E-2,2.815728188E-1,2.567473799E-2,2.848039691E-1
1.101584983E1,9.188719839E-2,2.913162410E-1,1.663836651E-2,3.059170553E-1
1.102586883E1,1.460533440E-1,2.497020215E-1,-2.196477959E-3,2.892879246E-1
1.103588783E1,1.808004081E-1,2.166308910E-1,-1.985350251E-2,2.828637341E-1
1.104590683E1,1.859339774E-1,2.193934023E-1,-3.012465127E-2,2.891580944E-1
1.105592583E1,1.697986871E-1,2.468945235E-1,-3.352124617E-2,3.015164570E-1
1.106594483E1,1.383212954E-1,2.756084800E-1,-3.876522556E-2,3.107982588E-1
1.107596383E1,9.712753445E-2,2.878345251E-1,-4.578265548E-2,3.072108776E-1
1.108598283E1,6.762077659E-2,2.724789679E-1,-4.064498842E-2,2.836712401E-1
1.109600183E1,5.707918853E-2,2.706981301E-1,-3.595250100E-2,2.789768696E-1
1.110602083E1,5.376220867E-2,2.916353941E-1,-3.315969929E-2,2.983976270E-1
1.111603983E1,6.122438610E-2,3.225954175E-1,-3.484361619E-2,3.301973750E-1
1.112605883E1,7.806088775E-2,3.614778519E-1,-3.423961252E-2,3.713920983E-1
1.113607783E1,8.727356046E-2,3.795921504E-1,-2.833085880E-2,3.905246632E-1
1.114609683E1,8.141740412E-2,3.615961075E-1,-1.225100923E-2,3.708512180E-1
1.115611583E1,6.597319990E-2,3.111416996E-1,1.369670220E-2,3.183539225E-1
1.116613583E1,4.446344078E-2,2.395924330E-1,4.857864976E-2,2.484782017E-1
1.117615483E1,1.377756707E-3,1.726357937E-1,7.760870457E-2,1.892831913E-1
1.118617383E1,-5.865070224E-2,1.276403517E-1,9.024577588E-2,1.669618648E-1
1.119619283E1,-1.250640750E-1,8.474349231E-2,8.545048535E-2,1.735634402E-1
1.120621183E1,-1.716267467E-1,6.133504957E-2,7.637907565E-2,1.976145027E-1
1.121623083E1,-1.840256304E-1,6.811252236E-2,6.823086739E-2,2.077503300E-1
1.122624983E1,-1.531701088E-1,9.923528135E-2,6.361955404E-2,1.932774455E-1
1.123626933E1,-8.960285783E-2,1.575651616E-1,5.078950897E-2,1.882419361E-1
1.124628833E1,-1.476137340E-2,2.197012454E-1,3.583026677E-2,2.230926790E-1
1.125630733E1,5.685076118E-2,2.612215281E-1,1.248366572E-2,2.676276101E-1
1.126632633E1,1.112878993E-1,2.765806317E-1,-4.821390845E-3,2.981695628E-1
1.127634533E1,1.379362941E-1,2.918605208E-1,-1.805969700E-2,3.233189408E-1
1.128636433E1,1.513854563E-1,3.019939959E-1,-2.233469114E-2,3.385509834E-1
1.129638333E1,1.564079076E-1,3.065583706E-1,-2.209340967E-2,3.448616924E-1
1.130640233E1,1.646417081E-1,3.184547722E-1,-1.968767866E-2,3.590375171E-1
1.131642133E1,1.751132607E-1,3.459617794E-1,-2.254711464E-2,3.884103233E-1
1.132644033E1,1.844782233E-1,3.812927902E-1,-2.894926257E-2,4.245638545E-1
1.133645933E1,1.815796494E-1,4.121753573E-1,-3.433044627E-2,4.517059595E-1
1.134647833E1,1.714109331E-1,4.148545563E-1,-4.438210279E-2,4.510607298E-1
1.135649733E1,1.511666477E-1,3.815035224E-1,-5.724304169E-2,4.143344770E-1
1.136651733E1,1.365477890E-1,3.278658390E-1,-6.717162579E-2,3.614600038E-1
1.137653633E1,1.232157275E-1,2.861942947E-1,-8.239132166E-2,3.223005115E-1
1.138655533E1,1.189322993E-1,2.454620153E-1,-7.879392058E-2,2.839101525E-1
1.139657433E1,1.016145572E-1,2.188615650E-1,-6.699904799E-2,2.504291822E-1
1.140659333E1,-2.595702112E-1,-4.141081274E-1,-1.843942888E-2,4.890830688E-1
1.141661233E1,-7.732694745E-1,-5.560157299E-1,5.419269949E-2,9.539580813E-1
1.142663133E1,-8.942832947E-1,-2.548466027E-1,2.801811695E-2,9.303087750E-1
1.143665033E1,-6.767254472E-1,-7.027594745E-2,2.489236556E-2,6.808198510E-1
1.144666933E1,-4.041830003E-1,-5.599766970E-2,4.313240945E-2,4.103170012E-1
1.145668833E1,-2.017731518E-1,-1.470924169E-1,7.141171396E-2,2.597079451E-1
1.146670733E1,-8.560067415E-2,-1.236464977E-1,9.264315665E-2,1.766314986E-1
1.147672633E1,-3.611860797E-2,-1.965405419E-2,1.033613160E-1,1.112402685E-1
1.148674533E1,-1.437910087E-2,7.838357985E-2,9.624177963E-2,1.249528882E-1
1.149676433E1,-1.023841836E-2,1.334361732E-1,9.285902977E-2,1.628890326E-1
1.150678333E1,-7.999151945E-3,1.332590580E-1,9.647674859E-2,1.647110378E-1
1.151680233E1,-1.280242950E-2,8.261132985E-2,9.631003439E-2,1.275310031E-1
1.152682133E1,-2.001733705E-2,3.257656936E-3,9.161040187E-2,9.382841703E-2
1.153684033E1,-3.836571798E-2,-6.977633387E-2,9.330124408E-2,1.226612703E-1
1.154685933E1,-6.510441750E-2,-1.153336465E-1,9.594511986E-2,1.635417415E-1
1.155687833E1,-9.877076745E-2,-1.407801509E-1,1.006112397E-1,1.992419056E-1
1.156689833E1,-1.299243718E-1,-1.801016927E-1,9.739438444E-2,2.424925323E-1
1.157691733E1,-1.495617181E-1,-2.288434058E-1,9.457595646E-2,2.892794902E-1
1.158693633E1,-1.505720317E-1,-2.576748431E-1,8.942969888E-2,3.115540604E-1
1.159695533E1,-1.535172164E-1,-2.427800447E-1,9.190617502E-2,3.015898388E-1
1.160697433E1,-1.683084369E-1,-2.271686792E-1,9.827830642E-2,2.993191679E-1
1.161699333E1,-1.706072837E-1,-2.784766257E-1,8.914499730E-2,3.385305110E-1
1.162701233E1,-1.589631736E-1,-3.626739681E-1,6.754168868E-2,4.017008556E-1
1.163703133E1,-1.316833496E-1,-4.178075194E-1,4.926894233E-2,4.408299633E-1
1.164705033E1,-9.805067629E-2,-4.268335402E-1,2.073743753E-2,4.384413843E-1
1.165706933E1,-5.367841944E-2,-3.804950714E-1,-2.490387298E-3,3.842708343E-1
1.166708833E1,-1.664884947E-2,-3.263686895E-1,2.308115829E-3,3.268012134E-1
1.167710733E1,-2.084359527E-2,-2.908261418E-1,1.545640826E-2,2.919815076E-1
1.168712633E1,-3.959534317E-2,-2.753557861E-1,3.019587696E-2,2.798220705E-1
1.169714533E1,-5.743426457E-2,-2.513654828E-1,3.630596772E-2,2.603870657E-1
1.170716433E1,-6.978135556E-2,-2.038036734E-1,2.856148593E-2,2.173042414E-1
1.171718333E1,-5.640642345E-2,-1.577269882E-1,1.625954732E-2,1.682969408E-1
1.172720233E1,-3.117614053E-2,-1.266568899E-1,7.632892812E-5,1.304374384E-1
1.173722133E1,-9.612524882E-3,-1.046687663E-1,-2.482702490E-3,1.051385518E-1
1.174724033E1,-3.932738211E-3,-1.054496020E-1,6.040770561E-3,1.056956759E-1
1.175725933E1,-1.372065395E-2,-1.486774981E-1,1.433332078E-2,1.499956628E-1
1.176727833E1,-4.111971334E-2,-2.043713927E-1,3.134551644E-2,2.108104324E-1
1.177729833E1,-7.977390289E-2,-2.560343146E-1,4.496252537E-2,2.719174039E-1
1.178731733E1,-1.274284720E-1,-3.038440049E-1,5.751827732E-2,3.344660626E-1
1.179733633E1,-1.812408417E-1,-3.539010286E-1,6.527952850E-2,4.029337385E-1
1.180735533E1,-2.330922931E-1,-4.065774679E-1,6.679274887E-2,4.733904581E-1
1.181737433E1,-2.756032646E-1,-4.210142195E-1,6.532561779E-2,5.074224757E-1
1.182739333E1,-2.877856195E-1,-3.777737916E-1,5.401570350E-2,4.779657902E-1
1.183741233E1,-2.693677545E-1,-2.803479135E-1,4.085728899E-2,3.909261539E-1
1.184743133E1,-2.088109553E-1,-1.574537307E-1,2.052504756E-2,2.623260756E-1
1.185745033E1,-1.121715009E-1,-3.595099971E-2,8.806073107E-3,1.181205610E-1
1.186746933E1,8.514545858E-3,8.324867487E-2,8.246107958E-3,8.408827299E-2
1.187748833E1,1.297632158E-1,1.867510974E-1,1.011484768E-2,2.276329825E-1
1.188750733E1,2.262147367E-1,2.222326249E-1,1.443846989E-2,3.174412010E-1
1.189752633E1,2.785807252E-1,2.071538121E-1,2.562907152E-2,3.481045412E-1
1.190754533E1,2.860782743E-1,2.034791857E-1,4.388991371E-2,3.537949725E-1
1.191756433E1,2.612141967E-1,2.169222981E-1,6.715981662E-2,3.461193160E-1
1.192758333E1,2.104272991E-1,2.175364494E-1,7.777810097E-2,3.124919008E-1
1.193760233E1,1.435654461E-1,1.985550374E-1,7.327655703E-2,2.557432189E-1
1.194762133E1,7.094978541E-2,1.675584465E-1,6.362375617E-2,1.927632937E-1
1.195764033E1,-3.983840812E-3,1.251036674E-1,4.410598055E-2,1.327107234E-1
1.196765933E1,-7.247591019E-2,7.559874654E-2,3.321617469E-2,1.098692054E-1
1.197767933E1,-1.295224130E-1,1.386800408E-2,3.141321242E-2,1.339968915E-1
1.198769833E1,-1.456491947E-1,-4.542063549E-2,3.535911441E-2,1.566109480E-1
1.199771733E1,-1.129010916E-1,-8.793107420E-2,3.899060190E-2,1.483199155E-1
1.200773633E1,-4.372976348E-2,-7.665107399E-2,2.859057486E-2,9.276368001E-2
1.201775533E1,3.890093416E-2,-3.100210056E-2,1.802368462E-2,5.290809130E-2
1.202777433E1,1.071443334E-1,2.278611064E-2,7.859049365E-4,1.095432913E-1
1.203779333E1,1.386079788E-1,4.979642481E-2,-7.872032002E-3,1.474917781E-1
1.204781233E1,1.190032437E-1,4.916048050E-2,-1.592021435E-2,1.297381135E-1
1.205783133E1,5.736597255E-2,2.044947445E-2,-8.320884779E-3,6.146765764E-2
1.206785033E1,-2.190437354E-2,-3.024306893E-2,4.110205453E-3,3.756778657E-2
1.207786933E1,-9.317642450E-2,-7.021818310E-2,1.289996877E-2,1.173833400E-1
1.208788833E1,-1.314374954E-1,-8.925440162E-2,2.400552481E-2,1.606811396E-1
1.209790733E1,-1.320401728E-1,-6.634748727E-2,3.631252795E-2,1.521683147E-1
1.210792633E1,-9.356351942E-2,-2.704874799E-2,4.723152891E-2,1.082431719E-1
1.211794533E1,-3.189110011E-2,2.521393821E-3,6.199582666E-2,6.976304334E-2
1.212796433E1,2.498567849E-2,1.605070382E-2,8.391668648E-2,8.901640013E-2
1.213798333E1,5.867839605E-2,1.041172631E-2,9.865462035E-2,1.152575044E-1
1.214800233E1,6.884489208E-2,-4.652730189E-3,9.981906414E-2,1.213470751E-1
1.215802133E1,4.977346212E-2,-2.457503974E-2,9.486372024E-2,1.099111256E-1
1.216804033E1,1.664894074E-2,-1.836456731E-2,8.582533151E-2,8.933326418E-2
1.217806033E1,-3.381582722E-2,8.670510724E-3,7.218381763E-2,8.018223902E-2
1.218807933E1,-7.299949974E-2,2.165163681E-2,6.407006085E-2,9.951227580E-2
1.219809833E1,-9.276042134E-2,2.988203894E-3,5.659803376E-2,1.087049334E-1
1.220811733E1,-9.321746230E-2,-5.593401194E-2,6.033171341E-2,1.243303045E-1
1.221813633E1,-7.092067599E-2,-1.217551008E-1,6.505642831E-2,1.551978921E-1
1.222815533E1,-4.022327811E-2,-1.624753773E-1,7.129857689E-2,1.819330850E-1
1.223817458E1,-2.053719386E-2,-1.752963662E-1,7.130337507E-2,1.903543108E-1
1.224819358E1,-2.903182246E-2,-1.563847065E-1,6.855965406E-2,1.732034910E-1
1.225821258E1,-4.844706506E-2,-1.330160052E-1,5.990011990E-2,1.537153216E-1
1.226823158E1,-7.256571203E-2,-1.035358831E-1,3.828526661E-2,1.321030783E-1
1.227825058E1,-8.362528682E-2,-8.401411772E-2,2.820759639E-2,1.218492063E-1
1.228826958E1,-7.622601837E-2,-6.845594198E-2,3.522889316E-2,1.083406516E-1
1.229828858E1,-6.098341197E-2,-5.043406785E-2,4.251716658E-2,8.983474377E-2
1.230830758E1,-4.492476955E-2,-2.760195732E-2,5.463744700E-2,7.592992547E-2
1.231832658E1,-3.370167688E-2,4.117089324E-3,5.897174031E-2,6.804718659E-2
1.232834558E1,-3.769028187E-2,3.067784756E-2,4.720605537E-2,6.775027190E-2
1.233836458E1,-4.872935265E-2,4.138828069E-2,2.840440534E-2,6.995963001E-2
1.234838358E1,-6.685851514E-2,3.141238913E-2,2.048397064E-2,7.665763035E-2
1.235840258E1,-8.187767863E-2,1.630534045E-2,1.650014706E-2,8.510037155E-2
1.236842158E1,-9.509206563E-2,-1.599651994E-3,1.368228812E-2,9.608467537E-2
1.237844158E1,-1.067007855E-1,-1.949955709E-2,9.108308703E-3,1.088496745E-1
1.238846058E1,-1.004681438E-1,-1.133354753E-1,1.180952229E-2,1.519152484E-1
1.239847958E1,-4.252574220E-2,-3.430051506E-1,5.596127361E-2,3.501323124E-1
1.240849858E1,-2.250437252E-2,-2.809369564E-1,9.010842443E-2,2.958911090E-1
1.241851758E1,3.523695469E-2,-2.775680721E-1,9.743984044E-2,2.962772352E-1
1.242853658E1,6.775319576E-2,-2.220135480E-1,8.051618934E-2,2.456895761E-1
1.243855558E1,7.716081291E-2,-1.158740669E-1,4.358160496E-2,1.458764776E-1
1.244857458E1,6.054578722E-2,-2.430814318E-2,-1.168698887E-3,6.525368979E-2
1.245859358E1,3.870813549E-2,2.987839468E-2,-3.923006356E-2,6.269000006E-2
1.246861258E1,4.843286239E-3,9.686721116E-2,-4.984013736E-2,1.090447308E-1
1.247863158E1,-2.705579251E-2,9.709917009E-2,-3.432482854E-2,1.064821985E-1
1.248865058E1,-6.351801008E-2,6.597855687E-2,-1.128643844E-2,9.227725215E-2
1.249866958E1,-1.458317786E-1,1.127077118E-1,2.574854530E-2,1.860992304E-1
1.250868858E1,-1.948251128E-1,3.388391435E-1,5.618834123E-2,3.948745617E-1
1.251870758E1,-1.490722746E-1,5.542457104E-1,8.690150827E-2,5.804849030E-1
1.252872658E1,-1.728967875E-1,1.787427068E-1,8.044173568E-2,2.613678006E-1
1.253874558E1,-2.382643372E-1,-1.922974288E-1,4.031909257E-2,3.088265286E-1
1.254876458E1,-2.848595977E-1,-3.470984995E-1,-2.656280994E-2,4.498087834E-1
1.255878358E1,-2.699248493E-1,-3.783485591E-1,-2.470658720E-2,4.654218215E-1
1.256880358E1,-2.173971236E-1,-3.413439393E-1,6.547127850E-3,4.047469075E-1
1.257882258E1,-1.715582609E-1,-2.810169458E-1,1.712691272E-3,3.292501998E-1
1.258884158E1,-1.534565985E-1,-2.271919847E-1,-1.204342954E-2,2.744269843E-1
1.259886058E1,-1.524312794E-1,-2.046840042E-1,3.511885589E-4,2.552076798E-1
1.260887958E1,-1.455383450E-1,-2.115232795E-1,2.254725248E-2,2.577438384E-1
1.261889858E1,-1.252088398E-1,-2.125470042E-1,2.498484403E-2,2.479470205E-1
1.262891758E1,-9.365635365E-2,-1.965880692E-1,2.702035941E-2,2.194276221E-1
1.263893658E1,-4.717379808E-2,-1.833396256E-1,4.330053180E-2,1.942002101E-1
1.264895558E1,-7.268202957E-3,-1.659547836E-1,6.270176172E-2,1.775537324E-1
1.265897458E1,1.489222609E-2,-1.522906274E-1,6.301601231E-2,1.654848373E-1
1.266899358E1,1.970643736E-2,-1.238369122E-1,6.890112907E-2,1.430779161E-1
1.267901258E1,2.957219258E-4,-1.093200147E-1,8.489074558E-2,1.384102299E-1
1.268903158E1,-1.532269642E-2,-1.013997048E-1,8.717929572E-2,1.345990890E-1
1.269905058E1,-1.319323294E-2,-1.035568565E-1,7.147889584E-2,1.265200240E-1
1.270906958E1,-4.791737068E-3,-9.391412139E-2,5.870579556E-2,1.108566343E-1
1.271908858E1,7.883578539E-3,-7.906620204E-2,5.578776821E-2,9.708702384E-2
1.272910758E1,2.554887347E-2,-8.859661222E-2,5.554760993E-2,1.076459084E-1
1.273912658E1,5.167901143E-2,-1.154431403E-1,5.135739222E-2,1.365116134E-1
1.274914558E1,7.744075358E-2,-1.477283537E-1,6.274978071E-2,1.782085065E-1
1.275916558E1,8.510666341E-2,-1.432784796E-1,8.048643172E-2,1.850673730E-1
1.276918458E1,7.372265309E-2,-1.401681751E-1,9.250631928E-2,1.834109212E-1
1.277920358E1,5.670451745E-2,-1.551223546E-1,9.867872298E-2,1.923950040E-1
1.278922258E1,4.417461902E-2,-1.630229056E-1,1.082769185E-1,2.006284023E-1
1.279924158E1,3.733748570E-2,-1.794221252E-1,1.217756867E-1,2.200356897E-1
1.280926058E1,2.847360075E-2,-1.929275095E-1,1.254681796E-1,2.318922896E-1
1.281927958E1,2.727570944E-2,-2.250681370E-1,1.066252440E-1,2.505365708E-1
1.282929858E1,3.722124174E-2,-2.091470063E-1,6.402498484E-2,2.218717867E-1
1.283931758E1,5.538080633E-2,-1.722576916E-1,2.904888988E-2,1.832582441E-1
1.284933658E1,8.239418268E-2,-1.229553968E-1,1.965453662E-2,1.493088468E-1
1.285935558E1,1.014443040E-1,-6.139776111E-2,-3.248648020E-3,1.186220283E-1
1.286937458E1,1.259388626E-1,-3.899205849E-2,-3.734461591E-2,1.370240784E-1
1.287939358E1,1.479690671E-1,-4.469974712E-2,-3.896328807E-2,1.594084378E-1
1.288941258E1,1.574046910E-1,-5.905227736E-2,-2.238743566E-2,1.696013133E-1
1.289943158E1,1.406962872E-1,-7.882598042E-2,-1.216489170E-2,1.617311504E-1
1.290945058E1,1.103509441E-1,-1.154239103E-1,-9.470867924E-3,1.599678320E-1
1.291946958E1,7.394686341E-2,-1.625536084E-1,-2.354274318E-2,1.801279406E-1
1.292948858E1,3.925942257E-2,-1.823012680E-1,-4.033495113E-2,1.907929843E-1
1.293950758E1,1.809368469E-2,-1.747365594E-1,-3.623847663E-2,1.793696569E-1
1.294952658E1,1.736098528E-2,-1.496714354E-1,-2.514963411E-2,1.527594399E-1
1.295954658E1,3.984232619E-2,-1.130974293E-1,-2.474723011E-2,1.224371874E-1
1.296956558E1,6.927583367E-2,-5.050859228E-2,-2.524263598E-2,8.937253323E-2
1.297958458E1,1.061792523E-1,8.743278682E-3,-1.880524307E-2,1.081855614E-1
1.298960358E1,1.471145153E-1,5.157168210E-2,-5.813993048E-3,1.560003895E-1
1.299962258E1,1.913733184E-1,9.262510389E-2,9.836606681E-3,2.128377685E-1
1.300964158E1,2.299703360E-1,1.662417799E-1,2.246859670E-2,2.846533377E-1
1.301966058E1,2.475906163E-1,2.742926180E-1,2.724284492E-2,3.705127882E-1
1.302967958E1,2.677038908E-1,3.306393325E-1,1.833868586E-2,4.258216161E-1
1.303969858E1,2.884483039E-1,3.421481848E-1,-9.137414396E-3,4.476061849E-1
1.304971758E1,3.207215965E-1,3.791767359E-1,-4.486765712E-2,4.986486199E-1
1.305973658E1,3.644421697E-1,4.438247085E-1,-6.382643431E-2,5.778168227E-1
1.306975558E1,3.861596584E-1,5.608445406E-1,-8.692362905E-2,6.864558236E-1
1.307977458E1,3.973411918E-1,6.095098257E-1,-1.019356027E-1,7.346925326E-1
1.308979358E1,3.912052214E-1,6.173729897E-1,-9.527713805E-2,7.370676134E-1
1.309981258E1,3.807182014E-1,5.986182094E-1,-7.614711672E-2,7.135043748E-1
1.310983158E1,3.802715242E-1,5.207389593E-1,-3.554619476E-2,6.457855897E-1
1.311985058E1,3.729353249E-1,4.304053187E-1,1.242878567E-2,5.696349442E-1
1.312986958E1,3.496291935E-1,3.612611294E-1,4.407832399E-2,5.046712546E-1
1.313988858E1,3.048486710E-1,2.997668684E-1,3.422170132E-2,4.289102615E-1
1.314990858E1,2.457483411E-1,2.555402517E-1,-1.104809158E-2,3.547042821E-1
1.315992758E1,1.824386120E-1,2.151696682E-1,-5.515216663E-2,2.874432026E-1
1.316994658E1,1.147435158E-1,1.621599942E-1,-9.049405158E-2,2.182913455E-1
1.317996558E1,5.874788761E-2,8.552461118E-2,-1.111314222E-1,1.520393581E-1
1.318998458E1,2.065995708E-2,1.093080640E-2,-1.182785183E-1,1.205658503E-1
1.320000358E1,1.113622636E-2,-4.643953964E-2,-1.179267094E-1,1.272295373E-1
1.321002258E1,1.117796637E-2,-7.388366759E-2,-1.146879643E-1,1.368834264E-1
1.322004158E1,2.357072011E-2,-6.085762009E-2,-1.108668670E-1,1.286494888E-1
1.323006058E1,3.937185183E-2,1.950106816E-3,-9.984374791E-2,1.073439315E-1
1.324007921E1,5.701742321E-2,9.287388623E-2,-8.338168263E-2,1.372189866E-1
1.325009821E1,7.690031081E-2,1.714011878E-1,-6.896775216E-2,2.001214027E-1
1.326011721E1,1.063468829E-1,2.301105857E-1,-6.372691691E-2,2.613841255E-1
1.327013621E1,1.373830438E-1,2.830006778E-1,-5.604259670E-2,3.195375674E-1
1.328015521E1,1.589746326E-1,3.101023436E-1,-5.212109536E-2,3.523535240E-1
1.329017421E1,1.745312810E-1,2.972416282E-1,-4.429930449E-2,3.475286779E-1
1.330019321E1,1.814760119E-1,2.780218720E-1,-4.500477761E-2,3.350449734E-1
1.331021221E1,1.792175174E-1,2.688320875E-1,-4.373386502E-2,3.260402748E-1
1.332023121E1,1.842666119E-1,2.761496603E-1,-4.618583620E-2,3.351804747E-1
1.333025021E1,1.910752952E-1,3.113108873E-1,-6.408977509E-2,3.708527151E-1
1.334027021E1,1.960633993E-1,3.493013978E-1,-9.036212415E-2,4.106307788E-1
1.335028921E1,2.026579231E-1,3.426498771E-1,-1.060800403E-1,4.119856151E-1
1.336030821E1,2.053040415E-1,2.908790708E-1,-1.003539786E-1,3.699071563E-1
1.337032721E1,1.977757663E-1,2.205271423E-1,-7.162418962E-2,3.047580987E-1
1.338034621E1,1.772973984E-1,1.565737128E-1,-3.470532224E-2,2.390693507E-1
1.339036521E1,1.538136750E-1,1.019859016E-1,1.083331183E-2,1.848705801E-1
1.340038421E1,1.285434663E-1,6.969640404E-2,5.356399715E-2,1.557244787E-1
1.341040321E1,1.076626182E-1,8.305268735E-2,9.222428501E-2,1.642994430E-1
1.342042221E1,7.225828618E-2,1.175081357E-1,1.220114753E-1,1.841635740E-1
1.343044121E1,4.577976465E-2,1.496873498E-1,1.367454529E-1,2.078494850E-1
1.344046021E1,2.704735473E-2,1.774534583E-1,1.336599141E-1,2.237996021E-1
1.345047921E1,2.627567016E-2,1.868933588E-1,1.159966961E-1,2.215282644E-1
1.346049821E1,4.971867800E-2,1.986791790E-1,8.365660161E-2,2.212324345E-1
1.347051721E1,1.017416343E-1,2.113443017E-1,3.960656375E-2,2.378790741E-1
1.348053621E1,1.616425216E-1,2.173601240E-1,-1.289153192E-2,2.711824476E-1
1.349055521E1,2.153009474E-1,1.998511702E-1,-6.297627091E-2,3.004346832E-1
1.350057421E1,-1.398731172E-1,4.209966063E-1,-2.795650065E-2,4.445044403E-1
1.351059321E1,-2.355983406E-1,1.115336120E-1,-4.050995782E-2,2.637942027E-1
1.352061221E1,-1.401240081E-1,-1.334758699E-1,-1.554101855E-1,2.481992571E-1
1.353063221E1,3.056864440E-2,-2.132580876E-1,-8.953043818E-2,2.333005643E-1
1.354065121E1,1.661712080E-1,-2.233032584E-1,-9.612172842E-3,2.785132124E-1