"Time (s)","Gyroscope x (rad/s)","Gyroscope y (rad/s)","Gyroscope z (rad/s)","Absolute (rad/s)"
2.826583324E-3,-1.257648692E-4,-5.245891865E-3,-3.842161596E-2,3.877828995E-2
1.284758333E-2,-2.713168971E-3,-6.083108019E-3,-3.737802431E-2,3.796685647E-2
2.286758334E-2,-2.487066202E-3,-1.253275201E-2,-2.478872798E-2,2.788792581E-2
3.288758332E-2,-2.280926332E-3,-1.201662328E-2,-1.138155907E-2,1.670753563E-2
4.290858333E-2,-1.794367097E-3,-1.926438650E-3,-3.874906339E-3,4.684636409E-3
5.292858333E-2,-6.706248969E-4,2.469075844E-5,-2.662146697E-3,2.745427548E-3
6.294858333E-2,-4.496521316E-3,-3.880993463E-4,-4.936220124E-3,6.688467251E-3
7.296870832E-2,-4.845999181E-3,-3.607105929E-3,-2.659853315E-3,6.600737906E-3
8.298970833E-2,-4.046518356E-3,-9.757410735E-3,9.471321246E-4,1.060558505E-2
9.300970833E-2,-2.418345772E-3,-1.086773537E-2,5.360870273E-4,1.114645494E-2
1.030297083E-1,-2.747512423E-3,-1.616103575E-2,4.439216107E-3,1.698336070E-2
1.130497083E-1,-2.715759911E-3,-1.771894470E-2,4.096551798E-3,1.838798765E-2
1.230707083E-1,-1.035572030E-3,-1.811522432E-2,1.565813273E-2,2.396687051E-2
1.330907083E-1,2.022050321E-4,-1.244512573E-2,3.106603213E-2,3.346670574E-2
1.431107083E-1,-6.862254813E-4,4.767975770E-4,4.394055530E-2,4.394849988E-2
1.531307083E-1,1.460135914E-3,8.153169416E-3,4.905213043E-2,4.974653423E-2
1.631517083E-1,1.945896540E-3,-6.722803228E-4,5.377791077E-2,5.381730354E-2
1.731717083E-1,9.232661687E-4,1.177661121E-3,5.601062998E-2,5.603061643E-2
1.831917083E-1,4.104145803E-3,-5.054567009E-4,5.895901471E-2,5.910384857E-2
1.932117083E-1,3.010211512E-4,-4.282796290E-3,6.172888726E-2,6.187801290E-2
2.032327083E-1,4.627859220E-3,-4.476408008E-3,7.377596200E-2,7.405638310E-2
2.132527083E-1,5.700200796E-3,-2.956710756E-3,8.235768974E-2,8.260764787E-2
2.232727083E-1,8.352975361E-3,4.710436333E-4,9.012985975E-2,9.051732264E-2
2.332927083E-1,6.105634384E-3,-7.144343108E-4,9.560561180E-2,9.580303855E-2
2.433137083E-1,7.426029537E-3,7.726749172E-4,9.691402316E-2,9.720118737E-2
2.533337083E-1,5.802747793E-3,-2.022102475E-3,9.854242951E-2,9.873384016E-2
2.633537083E-1,3.804578446E-3,-1.684147399E-3,9.918131679E-2,9.926854875E-2
2.733737083E-1,4.258490633E-3,-7.666165475E-4,9.677396715E-2,9.687065170E-2
2.833947083E-1,-2.619586885E-4,2.944498323E-3,9.195578098E-2,9.200328445E-2
2.934147083E-1,2.591303550E-3,-6.755678914E-4,9.197968245E-2,9.201865696E-2
3.034347083E-1,-1.034856774E-3,4.059418570E-4,8.907789737E-2,8.908483326E-2
3.134547083E-1,-2.447556704E-3,-4.832181148E-4,8.577493578E-2,8.581120930E-2
3.234757083E-1,-1.093339175E-3,-6.832215004E-4,8.080521226E-2,8.081549672E-2
3.334957083E-1,-1.575332135E-5,-2.813706407E-3,7.632242143E-2,7.637427057E-2
3.435157083E-1,-1.841616817E-3,-2.613436664E-3,7.492532581E-2,7.499350673E-2
3.535357083E-1,6.439136341E-4,-8.500524797E-3,7.119706273E-2,7.170561546E-2
3.635567083E-1,2.165377606E-3,-1.403696928E-2,6.961540878E-2,7.104949336E-2
3.735767083E-1,3.372770734E-3,-1.036035735E-2,6.603743881E-2,6.693023167E-2
3.835967083E-1,1.005837042E-2,2.710170578E-3,6.343127042E-2,6.428096069E-2
3.936167083E-1,6.352207623E-3,1.250688569E-3,5.529222637E-2,5.566996552E-2
4.036377083E-1,9.669973515E-3,-1.111268997E-3,5.097337812E-2,5.189439838E-2
4.136577083E-1,9.430324659E-3,1.741799177E-3,4.911267757E-2,5.004018371E-2
4.236777083E-1,8.192220703E-3,1.088259509E-3,4.634911567E-2,4.708011589E-2
4.336977083E-1,6.016624160E-3,-6.798529066E-4,4.191007465E-2,4.234520426E-2
4.437187083E-1,3.814722411E-3,1.505803317E-3,3.762850910E-2,3.785134407E-2
4.537387083E-1,4.874295555E-4,4.641182721E-3,3.692578897E-2,3.721951176E-2
4.637587083E-1,-2.354961820E-3,8.740319870E-3,3.594840690E-2,3.707056778E-2
4.737787083E-1,-1.331593841E-3,1.115633873E-3,2.804935165E-2,2.810309429E-2
4.837997083E-1,-5.295176990E-3,5.979153793E-4,2.056320570E-2,2.124245351E-2
4.938197083E-1,-8.315975778E-3,-2.022086177E-3,2.157843672E-2,2.321364290E-2
5.038397083E-1,-7.868564688E-3,-2.178147435E-3,1.382890437E-2,1.605917907E-2
5.138607083E-1,-7.533855736E-3,-4.169159103E-3,1.235850621E-2,1.506232205E-2
5.238807083E-1,-4.742063582E-3,-1.709321514E-2,8.528880775E-3,1.968265678E-2
5.339007083E-1,-4.207059741E-3,-2.112668194E-2,3.211154137E-3,2.177952140E-2
5.439207083E-1,-5.878238007E-4,-3.523719730E-3,7.610460161E-4,3.652578349E-3
5.539417083E-1,7.184576709E-3,9.426677600E-3,-1.946641598E-3,1.201123668E-2
5.639617083E-1,7.573398296E-3,5.097709596E-3,-4.087822977E-3,1.000266472E-2
5.739817083E-1,6.121778861E-3,-2.040676773E-4,-5.261374637E-3,8.074644457E-3
5.840017083E-1,7.803831249E-3,1.757084159E-3,-6.065116730E-3,1.003856403E-2
5.940227083E-1,4.336435813E-3,-2.078811638E-3,-6.616981700E-3,8.179888765E-3
6.040427083E-1,6.645662710E-3,8.964720182E-4,-1.107324939E-2,1.294547593E-2
6.140627083E-1,3.086793236E-3,1.327846432E-3,-1.356475335E-2,1.397476304E-2
6.240827083E-1,-3.783097491E-3,3.563251812E-4,-1.299989689E-2,1.354385888E-2
6.341037083E-1,-5.251198076E-3,2.222468145E-3,-1.552710310E-2,1.654102102E-2
6.441237083E-1,-8.000912145E-3,1.649622107E-3,-2.343722433E-2,2.482013965E-2
6.541437083E-1,-1.121519133E-2,-1.508409623E-4,-3.175219148E-2,3.367498974E-2
6.641637083E-1,-9.784806520E-3,5.240039900E-4,-3.783112019E-2,3.907954291E-2
6.741847083E-1,-1.233370695E-2,-2.981241094E-3,-4.006309807E-2,4.202451609E-2
6.842047083E-1,-6.638270803E-3,-1.138333697E-3,-3.861007839E-2,3.919311925E-2
6.942247083E-1,-3.259796649E-3,-4.484714009E-5,-3.501269966E-2,3.516414969E-2
7.042447083E-1,2.095196396E-5,-4.911927972E-4,-3.042673506E-2,3.043070679E-2
7.142657083E-1,7.264846936E-4,-6.705564447E-4,-3.356688842E-2,3.358144464E-2
7.242857083E-1,5.121232942E-3,-1.605059719E-3,-3.466304764E-2,3.507606186E-2
7.343057083E-1,8.711803705E-3,-1.527763670E-3,-3.670741990E-2,3.775796951E-2
7.443257083E-1,8.636969142E-3,-1.454793150E-3,-3.895885870E-2,3.993127008E-2
7.543467083E-1,8.492685854E-3,-2.182486933E-4,-4.341557249E-2,4.423895659E-2
7.643667083E-1,2.604702953E-3,-1.527991379E-3,-4.247893766E-2,4.258614070E-2
7.743867083E-1,2.791184001E-3,-2.838495420E-3,-4.211825877E-2,4.230597460E-2
7.844067083E-1,-2.163094468E-3,-1.180677908E-3,-4.478115588E-2,4.484891192E-2
7.944277083E-1,-6.460846402E-3,-1.336436486E-3,-4.818006232E-2,4.862969262E-2
8.044477083E-1,-1.140846591E-2,-1.464002067E-3,-5.034334585E-2,5.164057385E-2
8.144677083E-1,-9.165717289E-3,-3.045659978E-4,-5.268743634E-2,5.347961371E-2
8.244877083E-1,-1.172395051E-2,-3.104347270E-3,-5.364084989E-2,5.499480670E-2
8.345087083E-1,-8.601067588E-3,5.047162995E-5,-5.182741582E-2,5.253629167E-2
8.445287083E-1,-8.229291067E-3,-7.311659865E-4,-4.551173002E-2,4.625552296E-2
8.545487083E-1,-1.269239932E-3,-1.748571405E-3,-4.468631744E-2,4.473852298E-2
8.645687083E-1,6.698076613E-4,1.851756126E-3,-4.760727286E-2,4.764798078E-2
8.745897083E-1,3.368035890E-3,-5.475431681E-4,-4.276709631E-2,4.290300684E-2
8.846097083E-1,2.807972953E-3,7.747162599E-4,-4.258573428E-2,4.268523939E-2
8.946297083E-1,4.335673992E-3,-8.145850152E-4,-4.437762499E-2,4.459635879E-2
9.046497083E-1,1.774245873E-3,-2.641513245E-3,-4.125107452E-2,4.137362312E-2
9.146707083E-1,1.175292302E-3,1.866315957E-3,-3.689989075E-2,3.696574610E-2
9.246907083E-1,-1.427414827E-3,1.064171898E-3,-2.882704884E-2,2.888197915E-2
9.347107083E-1,-3.603124991E-3,2.331570722E-4,-2.179949358E-2,2.209648823E-2
9.447307083E-1,-3.292067908E-3,8.440862875E-4,-1.418924425E-2,1.459057384E-2
9.547517083E-1,-4.219247960E-3,-2.147795400E-3,-8.517430164E-3,9.744829143E-3
9.647717083E-1,-5.596102215E-3,1.882366138E-3,-3.297634423E-3,6.762695843E-3
9.747917083E-1,-2.571404912E-3,-1.033967594E-3,1.430212404E-3,3.118768944E-3
9.848117083E-1,8.632740937E-4,-1.786576817E-3,2.156456467E-3,2.930427166E-3
9.948327083E-1,-1.477319747E-4,-1.993915765E-3,6.307820790E-3,6.617108729E-3
1.004852708E0,1.044692472E-4,3.366163000E-4,1.129698753E-2,1.130248431E-2
1.014872708E0,7.439879701E-4,-1.828060485E-4,1.719376445E-2,1.721082427E-2
1.024892708E0,3.565607127E-3,6.593321450E-5,1.689229347E-2,1.726463090E-2
1.034913708E0,4.640544765E-3,7.582376711E-4,1.852775179E-2,1.911510310E-2
1.044933708E0,3.567290492E-3,1.190791372E-4,2.268974110E-2,2.296876341E-2
1.054953708E0,3.370749298E-3,1.635537483E-4,2.684986405E-2,2.706111417E-2
1.064973708E0,3.705508541E-3,1.446398557E-3,2.712576836E-2,2.741587445E-2
1.074994583E0,7.845284417E-4,-1.794684678E-3,2.979368903E-2,2.985800201E-2
1.085014583E0,-4.567708820E-4,-7.326160558E-4,3.017638624E-2,3.018873386E-2
1.095034583E0,-7.228571922E-4,5.730136763E-4,3.161428496E-2,3.162773910E-2
1.105054583E0,-7.220581174E-4,-3.921159077E-4,2.869519033E-2,2.870695161E-2
1.115075583E0,-1.807198860E-3,-1.514213393E-3,2.540275268E-2,2.551193160E-2
1.125095583E0,-3.469875082E-4,-2.316890052E-3,2.133211121E-2,2.146036692E-2
1.135115583E0,5.343716592E-3,-1.727505121E-3,2.073538303E-2,2.148245076E-2
1.145136583E0,3.473378718E-3,4.267259501E-4,1.943762414E-2,1.975013132E-2
1.155156583E0,4.329055548E-3,2.878245432E-4,1.596957259E-2,1.654843840E-2
1.165176583E0,5.018814001E-3,-8.855641354E-4,1.151543390E-2,1.259277315E-2
1.175196583E0,1.541855279E-3,-1.682048663E-3,4.394490272E-3,4.951580572E-3
1.185217583E0,2.945607062E-3,3.915210254E-5,1.674603904E-3,3.388573754E-3
1.195237583E0,8.933558129E-4,1.625511097E-3,-3.778681392E-3,4.209370974E-3
1.205257583E0,-1.838248223E-3,1.364255091E-3,-7.467425894E-3,7.810428795E-3
1.215277583E0,-6.161854602E-3,6.510993699E-4,-1.520066243E-2,1.641500901E-2
1.225298583E0,-3.424924798E-3,6.593551952E-4,-1.854346134E-2,1.886861992E-2
1.235318583E0,-5.766560324E-3,-3.072460648E-3,-1.990021951E-2,2.094545223E-2
1.245338583E0,-6.711715832E-3,1.533742878E-3,-2.055402659E-2,2.167642742E-2
1.255358583E0,-5.655345507E-3,-3.388084006E-3,-2.299417183E-2,2.392057658E-2
1.265379583E0,-6.193303503E-3,-3.960228059E-4,-2.566452324E-2,2.640419655E-2
1.275399583E0,-2.720310353E-3,-5.603330210E-4,-2.577216551E-2,2.592139225E-2
1.285419583E0,2.142355312E-3,-2.769425279E-3,-2.556283958E-2,2.580151488E-2
1.295439583E0,1.408904791E-5,5.855679046E-4,-3.165766969E-2,3.166308795E-2
1.305460583E0,5.678632297E-3,-1.401682617E-3,-3.353972360E-2,3.404591956E-2
1.315480583E0,4.119024146E-3,-3.718997585E-3,-4.202453420E-2,4.238937104E-2
1.325500583E0,5.534227937E-3,-1.158368075E-3,-4.435799643E-2,4.471690221E-2
1.335520583E0,5.595262628E-3,-6.331932731E-3,-4.672532156E-2,4.748321820E-2
1.345541583E0,1.672958955E-3,-5.295963027E-3,-5.056266859E-2,5.086678161E-2
1.355561583E0,5.294338334E-3,-6.355585530E-3,-5.768074840E-2,5.827085225E-2
1.365581583E0,-1.898859628E-3,2.587575698E-3,-6.684201956E-2,6.691903163E-2
1.375601583E0,-4.863019101E-3,-7.375400979E-3,-6.882952154E-2,6.939415342E-2
1.385622583E0,-7.902218029E-3,-1.409653574E-3,-8.435228467E-2,8.473334705E-2
1.395642583E0,-1.110343263E-2,-9.215173312E-3,-9.811563790E-2,9.917098384E-2
1.405662583E0,-8.086604998E-3,-1.440274436E-2,-1.065823585E-1,1.078546771E-1
1.415682583E0,-1.164961513E-2,-2.033821307E-2,-1.188870445E-1,1.211754339E-1
1.425703583E0,-9.944393300E-3,-2.629969828E-2,-1.319101602E-1,1.348734794E-1
1.435723583E0,-5.052382126E-3,-3.236145154E-2,-1.551593542E-1,1.585787354E-1
1.445743583E0,-2.887764946E-3,-2.885486931E-2,-1.954300851E-1,1.975698884E-1
1.455763583E0,-3.573023714E-3,-4.016555846E-3,-2.373318821E-1,2.373927579E-1
1.465784583E0,-1.961356029E-4,1.554489508E-2,-2.780505419E-1,2.784848040E-1
1.475804583E0,-4.173807800E-3,6.567765959E-4,-3.202600181E-1,3.202878880E-1
1.485824583E0,-1.764446497E-3,-2.556224354E-4,-3.574739397E-1,3.574783856E-1
1.495844583E0,-1.518148929E-5,-5.178142805E-3,-3.833224773E-1,3.833574507E-1
1.505865583E0,-6.238190457E-3,8.696296718E-4,-3.932792246E-1,3.933296579E-1
1.515885583E0,-8.276464418E-3,1.072419621E-2,-4.027679265E-1,4.029956710E-1
1.525905583E0,-5.364563316E-3,2.138697309E-3,-4.183572829E-1,4.183971423E-1
1.535925583E0,-9.833856486E-3,-4.644613340E-2,-4.926982820E-1,4.949803482E-1
1.545946583E0,-1.513487939E-2,-7.327077910E-4,-8.136310577E-1,8.137721423E-1
1.555966583E0,-3.726411611E-2,-2.577589639E-2,-8.535380363E-1,8.547398380E-1
1.565986583E0,-5.915263295E-2,-5.817511305E-2,-7.882525325E-1,7.926067327E-1
1.576007583E0,-2.543696761E-2,1.102554724E-1,-7.531058788E-1,7.615587786E-1
1.586027583E0,-3.263682500E-2,-2.682248503E-2,-8.981259465E-1,8.991189153E-1
1.596047583E0,-6.834172457E-2,-1.217299979E-2,-1.037200928E0,1.039521302E0
1.606067583E0,-2.228501439E-2,4.958810285E-2,-1.006539226E0,1.008006356E0
1.616087583E0,-4.644991457E-2,-1.081303135E-2,-1.004488826E0,1.005620364E0
1.626108583E0,-4.672128707E-2,-4.287722334E-2,-1.034496784E0,1.036438581E0
1.636128583E0,-3.433306515E-2,7.837884128E-3,-1.097914577E0,1.098479226E0
1.646148583E0,-5.031964555E-2,-2.512452565E-2,-1.174312115E0,1.175658220E0
1.656169583E0,-4.235126451E-2,-1.476823539E-2,-1.211883426E0,1.212713143E0
1.666189583E0,-4.975245520E-2,-3.080845438E-2,-1.217344165E0,1.218749885E0
1.676209583E0,-4.167678952E-2,-1.168605406E-2,-1.205885410E0,1.206661983E0
1.686229583E0,-4.411145300E-2,-1.375905890E-2,-1.219242454E0,1.220117737E0
1.696250583E0,-4.767869785E-2,-8.657646365E-3,-1.270442367E0,1.271366202E0
1.706270583E0,-4.869922251E-2,1.930549508E-3,-1.332633376E0,1.333524299E0
1.716290583E0,-5.445680022E-2,-1.390565187E-2,-1.369659662E0,1.370812351E0
1.726310583E0,-5.131107196E-2,-8.621142246E-3,-1.366930127E0,1.367919999E0
1.736331583E0,-5.253192037E-2,-1.016544364E-2,-1.353272319E0,1.354329689E0
1.746351583E0,-4.695659131E-2,-8.358489722E-3,-1.350659251E0,1.351501091E0
1.756371583E0,-5.088853091E-2,-1.570654474E-2,-1.375637293E0,1.376667825E0
1.766391583E0,-4.975801706E-2,-2.142195590E-2,-1.411410451E0,1.412449724E0
1.776412583E0,-5.338166282E-2,-2.450039238E-2,-1.427743554E0,1.428951198E0
1.786432583E0,-4.744574055E-2,-3.847046755E-3,-1.412565589E0,1.413367412E0
1.796452583E0,-4.845254123E-2,-2.004581271E-3,-1.381612897E0,1.382463694E0
1.806472583E0,-4.654065520E-2,-7.534901612E-3,-1.361178279E0,1.361994535E0
1.816493583E0,-4.630789533E-2,-5.814937409E-3,-1.368492961E0,1.369288581E0
1.826513583E0,-4.755132645E-2,-1.050662808E-2,-1.381589890E0,1.382447880E0
1.836533583E0,-4.992924631E-2,-9.986504912E-3,-1.384347558E0,1.385283661E0
1.846553583E0,-5.088984966E-2,-9.969194420E-3,-1.355959535E0,1.356950781E0
1.856574583E0,-5.152415484E-2,-1.192950644E-2,-1.310530186E0,1.311596897E0
1.866594583E0,-5.103413388E-2,-1.572584361E-2,-1.274060845E0,1.275179526E0
1.876614583E0,-5.100000650E-2,-2.158477344E-2,-1.258204579E0,1.259422751E0
1.886634583E0,-5.166446418E-2,-8.328887634E-4,-1.250149608E0,1.251216988E0
1.896655583E0,-5.090067163E-2,3.555308282E-2,-1.224292636E0,1.225865963E0
1.906675583E0,-4.536343738E-2,-2.203359734E-3,-1.191636324E0,1.192501499E0
1.916695583E0,-5.021855235E-2,-2.102891728E-2,-1.166941643E0,1.168210989E0
1.926715583E0,-3.525904566E-2,2.882572450E-2,-1.138215423E0,1.139126187E0
1.936736583E0,-3.699205816E-2,-9.732915089E-3,-1.109752655E0,1.110411679E0
1.946756583E0,-4.488407075E-2,-2.738035098E-2,-1.079308391E0,1.080588203E0
1.956776583E0,-2.334400266E-2,1.573579200E-2,-1.047071457E0,1.047449852E0
1.966796583E0,-4.147613421E-2,-2.835656703E-2,-9.967554808E-1,9.980209682E-1
1.976817583E0,-2.492694557E-2,-4.661505576E-3,-9.382408261E-1,9.385834700E-1
1.986837583E0,-3.327196091E-2,-1.289173868E-2,-8.839759827E-1,8.846958563E-1
1.996857583E0,-2.153621055E-2,3.800688544E-3,-8.388192058E-1,8.391042328E-1
2.006877583E0,-3.098936751E-2,-3.383987583E-3,-7.985516787E-1,7.991599188E-1
2.016898583E0,-2.566920966E-2,1.376560540E-3,-7.600811124E-1,7.605156807E-1
2.026918583E0,-2.599784359E-2,4.843463656E-3,-7.088930607E-1,7.093861561E-1
2.036938583E0,-2.768980898E-2,-2.412622329E-3,-6.443213820E-1,6.449206072E-1
2.046958583E0,-2.763201483E-2,-4.652606789E-3,-5.785711408E-1,5.792492900E-1
2.056979583E0,-2.505974099E-2,-1.896014903E-3,-5.183582306E-1,5.189670902E-1
2.066999583E0,-2.549916506E-2,-1.096034981E-2,-4.712162614E-1,4.720329455E-1
2.077019625E0,-1.901438832E-2,-4.123498686E-3,-4.294432700E-1,4.298837893E-1
2.087040625E0,-2.228288725E-2,-5.215394776E-3,-3.800232708E-1,3.807117201E-1
2.097060625E0,-1.284401491E-2,7.106847130E-3,-3.182274103E-1,3.185657870E-1
2.107080625E0,-9.673789144E-3,-7.285674568E-3,-2.542140782E-1,2.545023788E-1
2.117100625E0,-4.630032927E-4,6.192302331E-3,-1.882515997E-1,1.883539852E-1
2.127121625E0,1.085111871E-4,-8.102133870E-4,-1.326722354E-1,1.326747537E-1
2.137141625E0,4.826567136E-3,6.635800237E-4,-8.099305630E-2,8.113945561E-2
2.147161625E0,8.971777745E-3,2.195696579E-3,-2.786113136E-2,2.935228304E-2
2.157181625E0,9.708859026E-3,5.710180849E-4,3.248530999E-2,3.390993026E-2
2.167202625E0,1.141940802E-2,1.907126047E-3,1.034455001E-1,1.040913613E-1
2.177222625E0,1.039679907E-2,2.060384722E-3,1.672097743E-1,1.675453587E-1
2.187242625E0,1.313319616E-2,-1.023555873E-3,2.298563868E-1,2.302335489E-1
2.197262625E0,1.213484816E-2,4.148082808E-3,2.871956825E-1,2.874818624E-1
2.207283625E0,1.473489217E-2,1.335196756E-2,3.375853598E-1,3.381704707E-1
2.217303625E0,1.016817614E-2,-6.729480810E-5,3.923364878E-1,3.924682356E-1
2.227323625E0,1.076232828E-2,1.863230718E-3,4.542981088E-1,4.544293906E-1
2.237343625E0,1.448306721E-2,1.191073214E-3,5.171375871E-1,5.173417264E-1
2.247364625E0,1.617923379E-2,-4.051359370E-3,5.751242042E-1,5.753659977E-1
2.257384625E0,1.932722330E-2,-1.077054301E-3,6.214284897E-1,6.217299007E-1
2.267404625E0,2.275684290E-2,-1.118599670E-3,6.677134037E-1,6.681020241E-1
2.277424625E0,2.299219370E-2,-6.418069825E-3,7.058801055E-1,7.062836229E-1
2.287445625E0,2.620982565E-2,4.605019465E-3,7.539376616E-1,7.544071572E-1
2.297465625E0,3.395632654E-2,1.205611695E-2,7.983897924E-1,7.992025042E-1
2.307485625E0,3.736677021E-2,5.744309165E-4,8.438097239E-1,8.446368779E-1
2.317505625E0,3.552027419E-2,3.705959767E-3,8.882481456E-1,8.889657992E-1
2.327526625E0,4.385889694E-2,1.896454208E-2,9.307529926E-1,9.319787498E-1
2.337546625E0,3.929180652E-2,6.584813818E-4,9.664515257E-1,9.672501389E-1
2.347566625E0,4.011472315E-2,1.256680582E-2,1.010671258E0,1.011545109E0
2.357586625E0,3.881592304E-2,6.738226861E-3,1.054071188E0,1.054807162E0
2.367607625E0,4.037787020E-2,-4.440520424E-4,1.090633512E0,1.091380789E0
2.377627625E0,3.725191951E-2,1.490800641E-4,1.122174144E0,1.122792295E0
2.387647625E0,4.116357118E-2,1.443110057E-3,1.151935816E0,1.152671959E0
2.397667625E0,4.297439754E-2,1.363418438E-2,1.175202608E0,1.176067115E0
2.407688625E0,4.103428870E-2,1.010070276E-2,1.201424837E0,1.202167824E0
2.417708625E0,4.135668278E-2,1.318856422E-2,1.229833484E0,1.230599330E0
2.427728625E0,4.397004470E-2,1.250226703E-2,1.253201604E0,1.254035060E0
2.437748625E0,4.380932450E-2,1.128369570E-2,1.274048805E0,1.274851731E0
2.447769625E0,4.804428294E-2,1.413540822E-2,1.286140680E0,1.287115345E0
2.457789625E0,4.442530498E-2,-1.601848286E-3,1.298040509E0,1.298801500E0
2.467809625E0,5.080224574E-2,1.064203493E-2,1.307751179E0,1.308780832E0
2.477829625E0,4.625585675E-2,-3.286541905E-4,1.325040221E0,1.325847389E0
2.487850625E0,5.119522661E-2,-2.960922429E-3,1.333961248E0,1.334946565E0
2.497870625E0,4.963715747E-2,5.667111836E-3,1.331114531E0,1.332051747E0
2.507890625E0,5.077992007E-2,9.804865345E-3,1.321231842E0,1.322243667E0
2.517910625E0,4.941443354E-2,1.685659401E-2,1.318672419E0,1.319705603E0
2.527931625E0,4.731346294E-2,2.121166140E-2,1.308221817E0,1.309248953E0
2.537951625E0,4.583873600E-2,2.900788374E-2,1.297784328E0,1.298917553E0
2.547971625E0,4.734156281E-2,-7.663044613E-3,1.308102250E0,1.308981070E0
2.557992625E0,4.756635427E-2,5.239719991E-3,1.319517612E0,1.320385073E0
2.568012625E0,4.967611283E-2,1.872543432E-2,1.312623024E0,1.313696145E0
2.578032625E0,4.347612709E-2,-1.152492128E-3,1.285098195E0,1.285833921E0
2.588052625E0,5.098437890E-2,1.092281286E-2,1.251098633E0,1.252184692E0
2.598073625E0,4.380482435E-2,7.074317895E-3,1.222090244E0,1.222895529E0
2.608093625E0,4.566717148E-2,1.452531014E-2,1.211139917E0,1.212087610E0
2.618113625E0,4.065003991E-2,2.432961017E-3,1.199272633E0,1.199963830E0
2.628133625E0,4.941077530E-2,1.379933208E-2,1.178255677E0,1.179371988E0
2.638154625E0,4.527089745E-2,5.767863244E-3,1.145098209E0,1.146007256E0
2.648174625E0,4.358777776E-2,7.034995593E-3,1.099315047E0,1.100201326E0
2.658194625E0,4.223708808E-2,1.002949663E-2,1.052532196E0,1.053427067E0
2.668214625E0,3.647667170E-2,1.247989712E-3,1.019267678E0,1.019920931E0
2.678235625E0,3.728521615E-2,-1.439929940E-3,9.893025756E-1,9.900059832E-1
2.688255625E0,3.089709394E-2,-1.586387679E-2,9.467553496E-1,9.473922023E-1
2.698275625E0,3.010699712E-2,-5.437293090E-3,8.992761374E-1,8.997964029E-1
2.708295625E0,2.874186076E-2,-1.390295010E-2,8.424645066E-1,8.430692922E-1
2.718316625E0,2.093634009E-2,9.173208848E-3,8.034870028E-1,8.038120687E-1
2.728336625E0,3.046699613E-2,3.144575655E-2,7.780743241E-1,7.793052851E-1
2.738356625E0,1.608792879E-2,-1.753261685E-2,7.595154643E-1,7.598881198E-1
2.748376625E0,3.161176294E-2,2.105205879E-2,7.095180750E-1,7.105338778E-1
2.758397625E0,2.049055323E-2,1.768836752E-3,6.350607276E-1,6.353936727E-1
2.768417625E0,2.665443718E-2,1.565104933E-3,5.693307519E-1,5.699565015E-1
2.778437625E0,2.458930388E-2,-8.046851493E-3,5.113375783E-1,5.119917037E-1
2.788457625E0,2.688201889E-2,1.135800499E-2,4.777846932E-1,4.786751094E-1
2.798478625E0,2.062340826E-2,3.305724822E-3,4.457626939E-1,4.462517586E-1
2.808498625E0,1.795065962E-2,-4.478162155E-3,3.927103877E-1,3.931459382E-1
2.818518625E0,1.528045908E-2,2.324976027E-3,3.214774132E-1,3.218487613E-1
2.828538625E0,1.080075558E-2,-3.420261201E-3,2.434990257E-1,2.437624459E-1
2.838559625E0,7.470310666E-3,6.617890671E-3,1.780957878E-1,1.783751991E-1
2.848579625E0,1.524761319E-4,-1.214466058E-3,1.325067282E-1,1.325123813E-1
2.858599625E0,1.598009374E-3,7.611382753E-4,9.582369030E-2,9.584003645E-2
2.868619625E0,-3.077968955E-3,-2.719879383E-3,4.850624129E-2,4.867984266E-2
2.878640625E0,-7.708558813E-3,-5.443951115E-3,-1.922791637E-2,2.141894607E-2
2.888660625E0,-9.784225374E-3,-8.186208084E-3,-9.674214572E-2,9.757964863E-2
2.898680625E0,-1.109133009E-2,-1.451105997E-2,-1.635112464E-1,1.645281623E-1
2.908700625E0,-1.048546191E-2,-1.006145030E-2,-2.004705966E-1,2.009966114E-1
2.918721625E0,-1.230644528E-2,-5.845694803E-3,-2.430466264E-1,2.434281894E-1
2.928741625E0,-9.971386753E-3,2.063394058E-4,-2.884378135E-1,2.886101928E-1
2.938761625E0,-9.737304412E-3,-2.991412999E-3,-3.482336998E-1,3.483826536E-1
2.948781625E0,-8.328226395E-3,-1.475541620E-3,-4.138617218E-1,4.139481384E-1
2.958802625E0,-1.267199125E-2,-3.602901008E-3,-4.762944281E-1,4.764765918E-1
2.968822625E0,-1.261047181E-2,-3.863624763E-3,-5.165475607E-1,5.167159123E-1
2.978842625E0,-1.597318426E-2,-6.051177159E-3,-5.524777770E-1,5.527417602E-1
2.988862625E0,-2.051094547E-2,-1.409126073E-2,-5.915564299E-1,5.920796165E-1
2.998883625E0,-2.523211949E-2,-1.713493653E-2,-6.486342549E-1,6.493509549E-1
3.008903625E0,-2.800313942E-2,-8.824542165E-3,-7.138295174E-1,7.144330817E-1
3.018923625E0,-3.094099835E-2,-4.744930193E-3,-7.668164968E-1,7.674551450E-1
3.028944625E0,-3.493067995E-2,-4.957450554E-3,-8.075948358E-1,8.083651078E-1
3.038964625E0,-3.530694544E-2,-7.104291115E-3,-8.381216526E-1,8.388950804E-1
3.048984625E0,-3.830752894E-2,-7.111480925E-3,-8.709771037E-1,8.718481262E-1
3.059004625E0,-3.851422668E-2,-7.897935808E-3,-9.157563448E-1,9.165999160E-1
3.069025625E0,-4.187619686E-2,-7.797267754E-3,-9.649491906E-1,9.658888931E-1
3.079046208E0,-3.914424777E-2,-6.431546994E-3,-1.008352399E0,1.009132398E0
3.089066208E0,-4.146918654E-2,-1.009765454E-2,-1.035770774E0,1.036649773E0
3.099086208E0,-3.670359775E-2,-7.490684278E-3,-1.054155350E0,1.054820727E0
3.109107208E0,-3.885942698E-2,-6.624357775E-3,-1.078460455E0,1.079180657E0
3.119127208E0,-3.898558021E-2,-7.859037258E-3,-1.105086803E0,1.105802190E0
3.129147208E0,-3.741990775E-2,-4.587611184E-3,-1.142851233E0,1.143472884E0
3.139167208E0,-3.904744983E-2,-7.991450839E-3,-1.174120545E0,1.174796843E0
3.149188208E0,-3.780295700E-2,-8.306768723E-3,-1.192287087E0,1.192915154E0
3.159208208E0,-4.457531124E-2,-6.452370901E-3,-1.203368902E0,1.204211487E0
3.169228208E0,-4.372896254E-2,-1.067428105E-2,-1.211298227E0,1.212134299E0
3.179248208E0,-4.740522429E-2,-1.622539572E-2,-1.228601694E0,1.229622967E0
3.189269208E0,-4.700069129E-2,-1.134009380E-2,-1.250831842E0,1.251765937E0
3.199289208E0,-5.252086744E-2,-1.529833488E-2,-1.267667055E0,1.268846816E0
3.209309208E0,-4.857592657E-2,-7.766382303E-3,-1.273018360E0,1.273968478E0
3.219329208E0,-5.517375097E-2,-1.359105203E-2,-1.269871950E0,1.271142647E0
3.229350208E0,-5.103786290E-2,-5.843117833E-3,-1.267673850E0,1.268714308E0
3.239370208E0,-5.167667568E-2,-1.262311917E-2,-1.273262382E0,1.274373146E0
3.249390208E0,-4.898448661E-2,-6.493055262E-3,-1.274496317E0,1.275453841E0
3.259410208E0,-5.039915070E-2,-1.132225059E-2,-1.279157519E0,1.280200073E0
3.269431208E0,-4.294602573E-2,-3.886438441E-3,-1.270621538E0,1.271353043E0
3.279451208E0,-4.806485027E-2,-1.133927144E-2,-1.249609113E0,1.250584561E0
3.289471208E0,-4.091746360E-2,-6.178864744E-3,-1.229818821E0,1.230514831E0
3.299491208E0,-4.058808833E-2,-7.806094363E-3,-1.213546515E0,1.214250168E0
3.309512208E0,-3.917128593E-2,-8.704911917E-3,-1.204271317E0,1.204939654E0
3.319532208E0,-4.017297551E-2,-8.254884742E-3,-1.192110658E0,1.192815925E0
3.329552208E0,-4.335465282E-2,-4.310742952E-3,-1.168734193E0,1.169545990E0
3.339572208E0,-4.122284800E-2,-6.698722485E-3,-1.140545487E0,1.141309864E0
3.349593208E0,-4.052376747E-2,-6.798324641E-3,-1.111472726E0,1.112231996E0
3.359613208E0,-4.231026024E-2,-1.033936068E-2,-1.083270431E0,1.084145694E0
3.369633208E0,-3.985482454E-2,8.464483544E-4,-1.059432387E0,1.060182110E0
3.379653208E0,-4.262635484E-2,-1.141272020E-2,-1.030256987E0,1.031201588E0
3.389674208E0,-4.101833701E-2,-1.618945971E-3,-9.969575405E-1,9.978023164E-1
3.399694208E0,-3.764970228E-2,7.507577538E-4,-9.620717764E-1,9.628084787E-1
3.409714208E0,-3.997357935E-2,-1.245372742E-2,-9.191248417E-1,9.200779624E-1
3.419734208E0,-3.104264475E-2,1.916802861E-2,-8.755814433E-1,8.763412138E-1
3.429755208E0,-3.780574352E-2,-3.053120803E-3,-8.352358937E-1,8.360966415E-1
3.439775208E0,-2.647960931E-2,2.516046911E-2,-7.920808196E-1,7.929225963E-1
3.449795208E0,-3.099553287E-2,8.864587173E-3,-7.403821945E-1,7.410837321E-1
3.459815208E0,-3.453008458E-2,-3.029034659E-2,-7.163600922E-1,7.178311873E-1
3.469836208E0,-2.083797380E-2,1.843618229E-2,-6.899567246E-1,6.905174841E-1
3.479856208E0,-3.155791387E-2,-2.264341153E-2,-6.453372836E-1,6.465050933E-1
3.489876208E0,-2.127012610E-2,7.523013279E-3,-5.798836946E-1,5.803224219E-1
3.499896208E0,-2.128043398E-2,-1.556019997E-3,-5.103941560E-1,5.108399676E-1
3.509917208E0,-1.689420640E-2,-1.157429907E-2,-4.541103542E-1,4.545718781E-1
3.519937208E0,-1.473509800E-2,2.841062378E-3,-4.128406644E-1,4.131133124E-1
3.529957208E0,-1.660490409E-2,-4.680236802E-3,-3.799591362E-1,3.803505918E-1
3.539977208E0,-1.179013122E-2,-1.103254268E-3,-3.392544091E-1,3.394610117E-1
3.549998208E0,-9.438826703E-3,3.257980570E-4,-2.766056657E-1,2.767668547E-1
3.560018208E0,-8.630606346E-3,-3.716536332E-3,-2.099137157E-1,2.101239350E-1
3.570038208E0,-1.460578293E-3,4.941666499E-3,-1.432278901E-1,1.433205563E-1
3.580059208E0,-2.821720205E-3,-5.116560031E-3,-9.346886724E-2,9.365132372E-2
3.590079208E0,-1.862982288E-3,3.620949574E-4,-5.514331535E-2,5.517596436E-2
3.600099208E0,-2.072207630E-3,6.828684127E-4,-1.148139592E-2,1.168686468E-2
3.610119208E0,2.218391746E-4,-1.384277130E-3,4.249634966E-2,4.251946813E-2
3.620140208E0,1.871271525E-3,3.736042650E-3,1.100242957E-1,1.101036118E-1
3.630160208E0,6.215153262E-3,5.840206053E-3,1.772523373E-1,1.774573955E-1
3.640180208E0,8.147234097E-3,4.623561632E-3,2.317982912E-1,2.319875052E-1
3.650200208E0,1.107165124E-2,2.855755389E-3,2.776893377E-1,2.779246392E-1
3.660221208E0,1.421257388E-2,3.356352216E-3,3.173663020E-1,3.177021121E-1
3.670241208E0,1.134035457E-2,-4.445111845E-4,3.666318655E-1,3.668074782E-1
3.680261208E0,1.640899479E-2,4.120891914E-3,4.254369438E-1,4.257732143E-1
3.690281208E0,1.934646256E-2,-2.379884478E-3,4.840517640E-1,4.844440728E-1
3.700302208E0,2.250690386E-2,1.816022675E-3,5.380105376E-1,5.384841662E-1
3.710322208E0,2.433330193E-2,-8.343553636E-4,5.855442286E-1,5.860502106E-1
3.720342208E0,2.438432351E-2,-5.080604460E-4,6.205902696E-1,6.210693488E-1
3.730362208E0,2.750634775E-2,1.075188746E-3,6.566441655E-1,6.572209030E-1
3.740383208E0,2.904767171E-2,1.933049411E-3,7.089747190E-1,7.095721642E-1
3.750403208E0,3.504590690E-2,2.161620557E-2,7.461639047E-1,7.472991694E-1
3.760423208E0,2.636816725E-2,-8.731447160E-4,7.897079587E-1,7.901485320E-1
3.770443208E0,3.413128108E-2,1.165542938E-2,8.257362843E-1,8.265235656E-1
3.780464208E0,2.800712362E-2,-1.677587396E-3,8.646577597E-1,8.651128566E-1
3.790484208E0,3.581418097E-2,1.080384944E-2,8.976591229E-1,8.984382448E-1
3.800504208E0,3.005597554E-2,1.547434949E-3,9.336714745E-1,9.341563993E-1
3.810524208E0,3.602225333E-2,6.750719156E-3,9.627348185E-1,9.634321489E-1
3.820545208E0,3.300787508E-2,5.236633122E-3,9.967050552E-1,9.972652151E-1
3.830565208E0,3.696320206E-2,1.205459237E-2,1.027205944E0,1.027941459E0
3.840585208E0,4.052779078E-2,6.982414052E-3,1.054719687E0,1.055521138E0
3.850605208E0,4.311878234E-2,1.218676381E-2,1.079305768E0,1.080235478E0
3.860626208E0,4.099338502E-2,1.228045393E-2,1.105202794E0,1.106030959E0
3.870646208E0,4.175958037E-2,2.823835239E-3,1.127543449E0,1.128320020E0
3.880666208E0,4.993803799E-2,1.951603778E-2,1.146890998E0,1.148143564E0
3.890686208E0,4.147850722E-2,1.476051053E-3,1.158747435E0,1.159490519E0
3.900707208E0,4.582288116E-2,1.351395808E-2,1.175865293E0,1.176835396E0
3.910727208E0,4.221749306E-2,4.239765462E-3,1.190226436E0,1.190982477E0
3.920747208E0,4.782814160E-2,7.520938292E-3,1.200289726E0,1.201265800E0
3.930767208E0,3.898671269E-2,3.403158626E-3,1.206949592E0,1.207583894E0
3.940788208E0,5.081123114E-2,1.745712571E-2,1.206572413E0,1.207767992E0
3.950808208E0,4.096152633E-2,-4.090811126E-5,1.206345081E0,1.207040307E0
3.960828208E0,4.963470623E-2,2.859289013E-2,1.199593663E0,1.200960497E0
3.970848208E0,4.128649458E-2,3.924109042E-4,1.200987339E0,1.201696849E0
3.980869208E0,4.665733129E-2,1.638107374E-2,1.206441760E0,1.207454747E0
3.990889208E0,4.030250013E-2,-8.272074629E-4,1.211217880E0,1.211888497E0
4.000909208E0,4.859424382E-2,1.896104589E-2,1.204213262E0,1.205342483E0
4.010929208E0,4.093232751E-2,-1.161798835E-3,1.190403223E0,1.191107316E0
4.020950208E0,4.456556961E-2,8.339446038E-3,1.164679646E0,1.165561802E0
4.030970208E0,4.242678732E-2,7.454477251E-3,1.146668196E0,1.147477038E0
4.040990208E0,4.363182560E-2,1.767722657E-3,1.130876303E0,1.131719079E0
4.051010208E0,4.331730679E-2,7.372078951E-3,1.124283433E0,1.125141757E0
4.061031208E0,4.292697087E-2,5.695019383E-3,1.111014247E0,1.111857821E0
4.071051208E0,4.152082279E-2,6.987185217E-3,1.088524342E0,1.089338350E0
4.081071458E0,4.099243879E-2,7.697101682E-3,1.052512646E0,1.053338737E0
4.091092458E0,3.833620250E-2,5.175088532E-3,1.012449622E0,1.013188375E0
4.101112458E0,3.759988025E-2,5.024447106E-3,9.832981825E-1,9.840296295E-1
4.111132458E0,3.800361603E-2,9.242361411E-3,9.607995152E-1,9.615952395E-1
4.121152458E0,3.525383025E-2,7.882446982E-3,9.332102537E-1,9.339091729E-1
4.131173458E0,3.204604983E-2,3.303141799E-3,9.012264609E-1,9.018020814E-1
4.141193458E0,2.977075242E-2,4.742429592E-3,8.581935167E-1,8.587228310E-1
4.151213458E0,2.950336970E-2,4.963737912E-3,8.061436415E-1,8.066986167E-1
4.161233458E0,2.551924996E-2,3.602851648E-3,7.652103305E-1,7.656442141E-1
4.171254458E0,3.011826240E-2,-2.076073084E-3,7.288333774E-1,7.294583688E-1
4.181274458E0,2.193474397E-2,-2.303802967E-2,6.800275445E-1,6.807711400E-1
4.191294458E0,2.608954161E-2,1.131355111E-2,6.300783753E-1,6.307197632E-1
4.201314458E0,1.912741363E-2,-1.847775653E-2,5.885115266E-1,5.891121306E-1
4.211335458E0,2.497038804E-2,1.968853734E-2,5.634331107E-1,5.643297166E-1
4.221355458E0,2.117485180E-2,8.136011660E-3,5.392990112E-1,5.397758725E-1
4.231375458E0,1.708077453E-2,-6.804588716E-3,4.855577350E-1,4.859057206E-1
4.241395458E0,1.725313999E-2,1.199734956E-2,4.159278870E-1,4.164584186E-1
4.251416458E0,9.002933279E-3,-1.304275542E-2,3.490849435E-1,3.494445079E-1
4.261436458E0,1.128750946E-2,1.068595704E-2,3.014575541E-1,3.018580038E-1
4.271456458E0,6.102068815E-3,-6.705608685E-4,2.653813064E-1,2.654522983E-1
4.281476458E0,1.070223097E-2,2.979237819E-3,2.306369543E-1,2.309043488E-1
4.291497458E0,7.277139463E-3,-3.196898848E-3,1.804462224E-1,1.806211951E-1
4.301517458E0,7.232449949E-3,2.931224415E-3,1.166515350E-1,1.169122792E-1
4.311537458E0,-3.325250000E-4,-4.516305402E-3,4.435070977E-2,4.458130824E-2
4.321557458E0,2.699512988E-4,3.491672687E-3,-1.173024997E-2,1.224187144E-2
4.331578458E0,-4.016939551E-3,-3.886348801E-3,-5.446546525E-2,5.475149692E-2
4.341598458E0,-2.342629246E-3,3.287742846E-3,-8.844275773E-2,8.853484376E-2
4.351618458E0,-7.166679017E-3,-1.657224819E-2,-1.297933906E-1,1.310432179E-1
4.361638458E0,-8.335962892E-3,-1.649054699E-2,-1.944764405E-1,1.953522776E-1
4.371659458E0,-9.725598618E-3,-3.271946684E-3,-2.572916448E-1,2.574961813E-1
4.381679458E0,-1.201938931E-2,1.707290532E-3,-3.144743741E-1,3.147086152E-1
4.391699458E0,-1.534913946E-2,-6.808700040E-3,-3.524819314E-1,3.528816607E-1
4.401719458E0,-1.559279766E-2,9.447389748E-4,-3.826361597E-1,3.829549041E-1
4.411740458E0,-1.522474829E-2,-7.295614108E-3,-4.210551679E-1,4.213934900E-1
4.421760458E0,-1.960235089E-2,-8.022259921E-3,-4.738976955E-1,4.743707776E-1
4.431780458E0,-2.005349100E-2,-7.118115667E-3,-5.335780382E-1,5.340021844E-1
4.441800458E0,-2.057962865E-2,-2.342955908E-3,-5.856902599E-1,5.860563890E-1
4.451821458E0,-2.433441952E-2,-3.198629478E-3,-6.238935590E-1,6.243761432E-1
4.461841458E0,-2.333520353E-2,-4.985610023E-3,-6.536266804E-1,6.540620959E-1
4.471861458E0,-2.481065877E-2,-5.538490601E-3,-6.876559258E-1,6.881256541E-1
4.481881458E0,-2.872272581E-2,-5.268785171E-3,-7.328714728E-1,7.334530324E-1
4.491902458E0,-2.820447460E-2,-3.420550842E-3,-7.839186788E-1,7.844333544E-1
4.501922458E0,-3.461268172E-2,-8.563590236E-3,-8.267000318E-1,8.274686189E-1
4.511942458E0,-3.311279044E-2,-5.294026807E-3,-8.572012186E-1,8.578568720E-1
4.521962458E0,-3.724348918E-2,-9.209262207E-3,-8.795171976E-1,8.803535590E-1
4.531983458E0,-3.832286596E-2,-4.480819684E-3,-9.054718018E-1,9.062934975E-1
4.542003458E0,-3.717718273E-2,-1.004053466E-2,-9.415668249E-1,9.423539892E-1
4.552023458E0,-3.700674325E-2,-6.982692517E-3,-9.798492193E-1,9.805726641E-1
4.562043458E0,-4.004978389E-2,-5.390599370E-3,-1.010752559E0,1.011560072E0
4.572064458E0,-3.761325777E-2,-6.747745909E-3,-1.029834867E0,1.030543615E0
4.582084458E0,-4.118517041E-2,-8.172738366E-3,-1.043775916E0,1.044620110E0
4.592104458E0,-4.036518186E-2,-5.733016878E-3,-1.057066202E0,1.057852150E0
4.602124458E0,-3.936735168E-2,-1.031251438E-2,-1.077425599E0,1.078193887E0
4.612145458E0,-3.854816407E-2,-4.520671442E-3,-1.103202939E0,1.103885466E0
4.622165458E0,-4.316085950E-2,-1.228764281E-2,-1.124520659E0,1.125415727E0
4.632185458E0,-4.510976002E-2,-8.288106881E-3,-1.133158088E0,1.134085903E0
4.642205458E0,-4.497170821E-2,-8.263478056E-3,-1.135069251E0,1.135989852E0
4.652226458E0,-4.123902321E-2,-6.696474273E-3,-1.135336041E0,1.136104496E0
4.662246458E0,-4.344797879E-2,-5.457976833E-3,-1.145033717E0,1.145870730E0
4.672266458E0,-4.247006401E-2,-8.222605102E-3,-1.155278325E0,1.156087940E0
4.682286458E0,-4.499076679E-2,-9.668881074E-3,-1.162474990E0,1.163385473E0
4.692307458E0,-4.431512207E-2,-8.437701501E-3,-1.164032459E0,1.164906258E0
4.702327458E0,-4.399291798E-2,-1.135104243E-2,-1.150720954E0,1.151617531E0
4.712347458E0,-4.336574674E-2,-8.626095951E-3,-1.140491247E0,1.141348011E0
4.722367458E0,-4.586145654E-2,-9.367542341E-3,-1.135578871E0,1.136543178E0
4.732388458E0,-4.503534362E-2,-5.694776308E-3,-1.132291794E0,1.133201359E0
4.742408458E0,-4.266183078E-2,-6.352446042E-3,-1.127576947E0,1.128401594E0
4.752428458E0,-4.282881320E-2,-7.391079329E-3,-1.110593677E0,1.111443768E0
4.762448458E0,-3.887715563E-2,-5.736436229E-3,-1.087564468E0,1.088274236E0
4.772469458E0,-3.903667629E-2,-8.230220526E-3,-1.062422276E0,1.063171054E0
4.782489458E0,-3.713113070E-2,-3.799327416E-3,-1.041927695E0,1.042596028E0
4.792509458E0,-3.808960319E-2,-7.341864519E-3,-1.025201917E0,1.025935520E0
4.802530458E0,-3.688195348E-2,-5.749327131E-3,-1.010453463E0,1.011142687E0
4.812550458E0,-3.572667390E-2,-5.760512315E-3,-9.834973216E-1,9.841628729E-1
4.822570458E0,-3.425509483E-2,-5.574026145E-3,-9.494054317E-1,9.500395545E-1
4.832590458E0,-3.287424147E-2,-3.301017918E-3,-9.163755774E-1,9.169709981E-1
4.842611458E0,-3.086720407E-2,-3.676855005E-3,-8.852003217E-1,8.857459642E-1
4.852631458E0,-3.022484854E-2,6.537166424E-3,-8.533883095E-1,8.539484076E-1
4.862651458E0,-3.492722288E-2,-8.449517190E-3,-8.218373656E-1,8.226226114E-1
4.872671458E0,-2.717050165E-2,1.192579512E-2,-7.793178558E-1,7.798825432E-1
4.882692458E0,-3.039286658E-2,-7.303803228E-3,-7.427016497E-1,7.433591409E-1
4.892712458E0,-2.596935630E-2,7.092447020E-3,-7.034006119E-1,7.039155710E-1
4.902732458E0,-2.691664174E-2,1.886734739E-2,-6.611167789E-1,6.619334390E-1
4.912752458E0,-2.850681543E-2,-2.283478156E-3,-6.153392196E-1,6.160034155E-1
4.922773458E0,-2.842764929E-2,-1.800854877E-2,-5.821107030E-1,5.830825924E-1
4.932793458E0,-2.153165825E-2,8.023850620E-3,-5.526452661E-1,5.531227572E-1
4.942813458E0,-2.221094817E-2,1.712115481E-4,-5.169996619E-1,5.174765753E-1
4.952833458E0,-2.291375585E-2,-1.583811454E-2,-4.629907608E-1,4.638279106E-1
4.962854458E0,-1.108735427E-2,1.502084266E-2,-4.041977525E-1,4.046286918E-1
4.972874458E0,-1.946619153E-2,-1.414076984E-2,-3.479629755E-1,3.487938163E-1
4.982894458E0,-8.921661414E-3,3.249239177E-3,-2.989220917E-1,2.990728515E-1
4.992914458E0,-7.579161786E-3,-2.837104257E-4,-2.671095729E-1,2.672172302E-1
5.002935458E0,-7.621238939E-3,-5.652376451E-3,-2.279129177E-1,2.281103477E-1
5.012955458E0,-2.900786698E-3,6.039212458E-4,-1.819779277E-1,1.820020479E-1
5.022975458E0,-1.880651340E-3,-1.624656375E-3,-1.230460480E-1,1.230711432E-1
5.032995458E0,-1.007134095E-3,-3.346922342E-3,-6.221785024E-2,6.231594576E-2
5.043016458E0,2.552455757E-3,4.234929103E-3,-8.873059414E-3,1.015779692E-2
5.053036458E0,-7.613152266E-4,-2.749210689E-3,2.812677063E-2,2.827106270E-2
5.063056458E0,2.412497997E-4,5.114336032E-3,6.896395236E-2,6.915375160E-2
5.073076458E0,2.986436710E-3,2.338269260E-4,1.143538058E-1,1.143930346E-1
5.083097083E0,5.930788349E-3,4.923035856E-3,1.726339608E-1,1.728059460E-1
5.093117083E0,8.413121104E-3,8.358513936E-3,2.311734408E-1,2.314774397E-1
5.103137083E0,9.941468015E-3,4.016649909E-3,2.839904726E-1,2.841928127E-1
5.113157083E0,9.649053216E-3,-1.495294506E-3,3.227208257E-1,3.228685049E-1
5.123178083E0,1.632457972E-2,3.704180475E-3,3.588625789E-1,3.592527848E-1
5.133198083E0,1.311999932E-2,-2.050644252E-3,3.999799192E-1,4.002002940E-1
5.143218083E0,1.827047393E-2,6.791652413E-4,4.525240660E-1,4.528932565E-1
5.153238083E0,2.251315489E-2,4.279758781E-3,5.018641949E-1,5.023871302E-1
5.163259083E0,2.499364316E-2,-1.571007306E-3,5.535117984E-1,5.540780281E-1
5.173279083E0,2.521734685E-2,1.006932696E-3,5.919840932E-1,5.925218098E-1
5.183299083E0,2.491169982E-2,2.057751641E-3,6.231425405E-1,6.236436906E-1
5.193319083E0,2.757805772E-2,2.731797518E-3,6.529971361E-1,6.535849384E-1
5.203340083E0,3.462830558E-2,1.569688693E-2,6.807167530E-1,6.817776834E-1
5.213360083E0,2.195192501E-2,-1.197708584E-2,7.256599665E-1,7.260907137E-1
5.223380083E0,3.069820628E-2,1.651914977E-2,7.702690959E-1,7.710575480E-1
5.233400083E0,2.525310591E-2,4.168781452E-4,8.105598092E-1,8.109532030E-1
5.243421083E0,3.196720406E-2,3.556478769E-3,8.384505510E-1,8.390672662E-1
5.253441083E0,3.108143434E-2,1.031158678E-2,8.600189686E-1,8.606422083E-1
5.263461083E0,3.414820135E-2,5.208847113E-3,8.802637458E-1,8.809412545E-1
5.273481083E0,3.210129589E-2,8.119415492E-3,9.082863331E-1,9.088896968E-1
5.283502083E0,3.549497947E-2,1.428428013E-2,9.405909777E-1,9.413688552E-1
5.293522083E0,3.910862282E-2,1.101205405E-2,9.692340493E-1,9.700852499E-1
5.303542083E0,3.563688323E-2,1.750531839E-3,9.923489094E-1,9.929901358E-1
5.313562083E0,4.003110155E-2,1.313234959E-2,1.012826443E0,1.013702299E0
5.323583083E0,3.682243079E-2,-4.346521571E-3,1.032193303E0,1.032859041E0
5.333603083E0,3.933618963E-2,1.610415801E-2,1.043415070E0,1.044280464E0
5.343623083E0,3.868395463E-2,1.010509091E-3,1.056781054E0,1.057489321E0
5.353643083E0,3.836357594E-2,7.136578672E-3,1.068092465E0,1.068805038E0
5.363664083E0,4.292012006E-2,1.611688733E-2,1.074301600E0,1.075279415E0
5.373684083E0,3.564063460E-2,-9.608981200E-4,1.083971262E0,1.084557456E0
5.383704083E0,4.490108788E-2,2.205115557E-2,1.092902303E0,1.094046528E0
5.393724083E0,3.976598382E-2,6.417868193E-3,1.091415763E0,1.092158821E0
5.403745083E0,4.108096287E-2,1.334924437E-2,1.092803121E0,1.093656485E0
5.413765083E0,4.245994613E-2,1.168478047E-3,1.095199466E0,1.096022847E0
5.423785083E0,3.844117373E-2,2.529331250E-3,1.097197294E0,1.097873410E0
5.433805083E0,4.262819514E-2,1.345175318E-2,1.096122861E0,1.097033928E0
5.443826083E0,4.215634614E-2,-5.420715548E-3,1.087928176E0,1.088758126E0
5.453846083E0,4.295849055E-2,1.533809304E-2,1.073318124E0,1.074286965E0
5.463866083E0,4.213986546E-2,7.687485777E-4,1.056242228E0,1.057082779E0
5.473886083E0,4.156861827E-2,9.334806353E-3,1.045608759E0,1.046476357E0
5.483907083E0,3.976887465E-2,7.963987067E-3,1.034961700E0,1.035756105E0
5.493927083E0,3.718986735E-2,5.628927611E-3,1.027786851E0,1.028474882E0
5.503947083E0,3.878868371E-2,1.111188903E-2,1.007053018E0,1.007861010E0
5.513967083E0,3.750291094E-2,-5.021807738E-5,9.861439466E-1,9.868568054E-1
5.523988083E0,3.895996138E-2,7.637344301E-3,9.578012228E-1,9.586236957E-1
5.534008083E0,3.463605419E-2,2.673211973E-3,9.336473942E-1,9.342934544E-1
5.544028083E0,3.220747411E-2,4.019634798E-3,9.087662697E-1,9.093457053E-1
5.554048083E0,3.139147907E-2,2.054488519E-3,8.855443001E-1,8.861029022E-1
5.564069083E0,3.256552294E-2,5.445957184E-3,8.549306393E-1,8.555679808E-1
5.574089083E0,2.929036692E-2,7.859580219E-4,8.235428929E-1,8.240639780E-1
5.584109083E0,2.954960242E-2,1.055626106E-2,7.875323892E-1,7.881572671E-1
5.594129083E0,3.101008013E-2,5.349516869E-6,7.504776716E-1,7.511180737E-1
5.604150083E0,3.172457591E-2,8.099750616E-3,7.163999081E-1,7.171477414E-1
5.614170083E0,2.527360246E-2,3.063713200E-3,6.828901172E-1,6.833645099E-1
5.624190083E0,2.828593552E-2,3.403543029E-3,6.444428563E-1,6.450723008E-1
5.634210083E0,2.550692484E-2,8.263013326E-3,6.032150388E-1,6.038106190E-1
5.644231083E0,2.330869809E-2,6.526603829E-4,5.631403923E-1,5.636229438E-1
5.654251083E0,2.143862657E-2,-1.045192219E-2,5.187620521E-1,5.193100462E-1
5.664271083E0,1.892386936E-2,-3.245223546E-3,4.692355394E-1,4.696281889E-1
5.674291083E0,1.619306393E-2,-1.128876954E-2,4.178684950E-1,4.183344723E-1
5.684312083E0,4.547785502E-3,-1.635662466E-2,3.804706335E-1,3.808492149E-1
5.694332083E0,2.134807035E-2,3.950930387E-2,3.586654663E-1,3.614659623E-1
5.704352083E0,4.482182674E-3,-8.599909022E-3,3.309068680E-1,3.310489445E-1
5.714372083E0,1.216779836E-2,-1.953192055E-3,2.816922069E-1,2.819616458E-1
5.724393083E0,7.533437572E-3,7.502461784E-3,2.147528082E-1,2.150158326E-1
5.734413083E0,5.948375911E-4,-1.612030901E-2,1.501147002E-1,1.509789436E-1
5.744433083E0,2.611916047E-3,1.112309564E-2,9.887030721E-2,9.952830255E-2
5.754454083E0,1.706973650E-3,-3.063563723E-3,6.905568391E-2,6.914467920E-2
5.764474083E0,1.995926723E-3,-1.415133243E-3,3.998232633E-2,4.005711852E-2
5.774494083E0,2.068631351E-3,1.737783197E-3,-1.447937335E-3,3.065232231E-3
5.784514083E0,2.277828753E-4,-9.057717398E-5,-6.256877631E-2,6.256925649E-2
5.794535083E0,-2.630322240E-3,-9.153846651E-3,-1.284939945E-1,1.288464905E-1
5.804555083E0,-3.200064413E-3,-7.022551261E-3,-1.781218499E-1,1.782889510E-1
5.814575083E0,-8.261934854E-3,-9.479317814E-3,-2.126662582E-1,2.130376831E-1
5.824595083E0,-5.073168315E-3,2.843793947E-3,-2.443921417E-1,2.444613326E-1
5.834616083E0,-8.385074325E-3,-7.785947062E-3,-2.800257504E-1,2.802594358E-1
5.844636083E0,-1.090901531E-2,-5.279136822E-3,-3.316062093E-1,3.318275967E-1
5.854656083E0,-1.696371101E-2,-8.397698402E-3,-3.882889450E-1,3.887500400E-1
5.864676083E0,-1.640572771E-2,-4.633986391E-4,-4.371148646E-1,4.374228703E-1
5.874697083E0,-2.200369164E-2,-5.962293595E-3,-4.667193592E-1,4.672757982E-1
5.884717083E0,-1.937353238E-2,-3.451019060E-3,-4.953923523E-1,4.957830433E-1
5.894737083E0,-2.134240791E-2,-6.583428942E-3,-5.300863981E-1,5.305567165E-1
5.904757083E0,-2.167586610E-2,-8.088125847E-3,-5.727686882E-1,5.732357553E-1
5.914778083E0,-2.418829128E-2,-6.539498456E-3,-6.234891415E-1,6.239924262E-1
5.924798083E0,-2.594420686E-2,-3.903267905E-3,-6.657399535E-1,6.662567246E-1
5.934818083E0,-2.911470085E-2,-4.347216804E-3,-6.948291659E-1,6.954524671E-1
5.944838083E0,-2.753676847E-2,-7.224663626E-3,-7.188630700E-1,7.194265653E-1
5.954859083E0,-3.095893189E-2,-3.477063496E-3,-7.442491055E-1,7.449008500E-1
5.964879083E0,-3.112201765E-2,-5.675901659E-3,-7.799385786E-1,7.805799013E-1
5.974899083E0,-3.093959019E-2,-5.996013992E-3,-8.210244775E-1,8.216291153E-1
5.984919083E0,-3.562289476E-2,-5.011565983E-3,-8.554251194E-1,8.561811965E-1
5.994940083E0,-3.371074051E-2,-5.575090647E-3,-8.749394417E-1,8.756063740E-1
6.004960083E0,-3.430689126E-2,-5.564048886E-3,-8.912123442E-1,8.918897711E-1
6.014980083E0,-3.560598195E-2,-6.968867034E-3,-9.061332345E-1,9.068592999E-1
6.025000083E0,-3.375663236E-2,-8.142068982E-3,-9.338229895E-1,9.344683939E-1
6.035021083E0,-3.628876805E-2,-8.076288737E-3,-9.616167545E-1,9.623351203E-1
6.045041083E0,-3.925496712E-2,-6.962524261E-3,-9.837127924E-1,9.845203335E-1
6.055061083E0,-3.733163327E-2,-9.363364428E-3,-9.945569634E-1,9.953014001E-1
6.065081083E0,-3.875747323E-2,-7.873242721E-3,-9.980992675E-1,9.988825143E-1
6.075102083E0,-4.033779353E-2,-6.683075335E-3,-1.003305316E0,1.004138117E0
6.085122833E0,-4.110343382E-2,-7.838445716E-3,-1.019235730E0,1.020094313E0
6.095142833E0,-3.866291046E-2,-7.661345415E-3,-1.032894611E0,1.033646359E0
6.105162833E0,-3.970191628E-2,-7.762388792E-3,-1.043916345E0,1.044699876E0
6.115183833E0,-4.099008441E-2,-7.674504537E-3,-1.045869827E0,1.046700903E0
6.125203833E0,-4.278625548E-2,-9.114887565E-3,-1.037415028E0,1.038336980E0
6.135223833E0,-4.106532037E-2,-6.984891370E-3,-1.032211185E0,1.033051344E0
6.145243833E0,-4.192476347E-2,-8.296320215E-3,-1.035529733E0,1.036411280E0
6.155264833E0,-3.852044418E-2,-4.878685344E-3,-1.040387034E0,1.041111333E0
6.165284833E0,-4.159519449E-2,-9.677045979E-3,-1.042014718E0,1.042889485E0
6.175304833E0,-3.966200724E-2,-3.374143038E-3,-1.027757168E0,1.028527713E0
6.185324833E0,-3.987781703E-2,-6.930029951E-3,-1.010768175E0,1.011578257E0
6.195345833E0,-3.932760656E-2,-3.503074171E-3,-9.924606085E-1,9.932456854E-1
6.205365833E0,-3.729614615E-2,-8.550830185E-3,-9.820122123E-1,9.827573985E-1
6.215385833E0,-3.615791351E-2,-7.071710192E-3,-9.715721011E-1,9.722704107E-1
6.225405833E0,-3.582633659E-2,-7.243116386E-3,-9.573197961E-1,9.580173177E-1
6.235426833E0,-3.402843699E-2,-7.158693857E-3,-9.393591881E-1,9.400025881E-1
6.245446833E0,-3.142887354E-2,-5.908684805E-3,-9.102375507E-1,9.107991466E-1
6.255466833E0,-3.180864081E-2,-5.563804880E-3,-8.805568814E-1,8.811487769E-1
6.265486833E0,-3.268888593E-2,-7.976995781E-3,-8.605873585E-1,8.612449113E-1
6.275507833E0,-3.380608559E-2,-2.791022416E-3,-8.401377797E-1,8.408222940E-1
6.285527833E0,-3.043937683E-2,-6.220929325E-3,-8.193678260E-1,8.199566390E-1
6.295547833E0,-3.183780238E-2,-8.522965945E-3,-7.869816422E-1,7.876715000E-1
6.305567833E0,-2.867579646E-2,-4.308673553E-3,-7.509127855E-1,7.514724728E-1
6.315588833E0,-3.217332810E-2,-9.067475796E-3,-7.147691846E-1,7.155503682E-1
6.325608833E0,-2.587383613E-2,-6.722989492E-4,-6.824632287E-1,6.829538534E-1
6.335628833E0,-2.784164622E-2,-4.868375137E-3,-6.493673325E-1,6.499821465E-1
6.345648833E0,-2.200517058E-2,1.719850302E-2,-6.120724082E-1,6.127092695E-1
6.355669833E0,-2.330825664E-2,2.131287474E-4,-5.673382282E-1,5.678168591E-1
6.365689833E0,-1.977911219E-2,-6.678593345E-3,-5.291433930E-1,5.295550465E-1
6.375709833E0,-2.098259516E-2,2.314108796E-2,-4.956357777E-1,4.966191734E-1
6.385729833E0,-1.380844973E-2,1.542728581E-2,-4.488814473E-1,4.493586854E-1
6.395750833E0,-1.802769490E-2,-3.194076195E-2,-4.157346785E-1,4.173494135E-1
6.405770833E0,-2.430567890E-2,3.089183010E-3,-3.878442645E-1,3.886173987E-1
6.415790833E0,-4.162591882E-3,1.571682841E-2,-3.556221426E-1,3.559936153E-1
6.425810833E0,-2.325505391E-2,-3.451457992E-2,-3.105162978E-1,3.132928741E-1
6.435831833E0,3.523298074E-3,2.852430940E-2,-2.515850663E-1,2.532214356E-1
6.445851833E0,-1.464542933E-2,-2.048305795E-2,-1.965811253E-1,1.981872425E-1
6.455871833E0,-6.414642558E-4,3.009218490E-3,-1.487302482E-1,1.487620705E-1
6.465891833E0,-2.537108958E-5,4.822900984E-3,-1.121852621E-1,1.122888866E-1
6.475912833E0,-3.615578637E-3,-1.277606655E-2,-8.431953937E-2,8.535856726E-2
6.485932833E0,2.623885404E-3,1.016951352E-2,-4.698460177E-2,4.814412304E-2
6.495952833E0,-3.806930035E-4,-3.281846875E-3,6.901799235E-3,7.651815390E-3
6.505972833E0,2.639601938E-3,-2.954785945E-3,6.298815459E-2,6.311264435E-2
6.515993833E0,5.135516636E-3,4.502864089E-3,1.128076464E-1,1.130142221E-1
6.526013833E0,7.534800097E-3,-2.728858963E-3,1.540519446E-1,1.542602396E-1
6.536033833E0,8.037072606E-3,1.852576854E-3,1.883334816E-1,1.885139964E-1
6.546053833E0,8.217295632E-3,4.056507722E-3,2.201148868E-1,2.203055664E-1
6.556074833E0,8.660445921E-3,5.584629718E-3,2.673409879E-1,2.675395209E-1
6.566094833E0,1.434401982E-2,2.855176339E-3,3.216486573E-1,3.219809959E-1
6.576114833E0,1.466972381E-2,-3.193927463E-3,3.693717122E-1,3.696767017E-1
6.586134833E0,1.778990589E-2,6.652514450E-3,4.091411233E-1,4.095817323E-1
6.596155833E0,1.648202725E-2,-2.624341054E-3,4.379543960E-1,4.382722868E-1
6.606175833E0,2.001445368E-2,7.203547284E-6,4.697281718E-1,4.701543723E-1
6.616195833E0,2.044801414E-2,1.028792234E-3,5.082947612E-1,5.087069333E-1
6.626215833E0,2.216482908E-2,1.030305866E-4,5.496684313E-1,5.501151467E-1
6.636236833E0,2.562693879E-2,1.136070816E-3,5.913721919E-1,5.919282896E-1
6.646256833E0,2.531636693E-2,2.312241122E-2,6.244305372E-1,6.253711379E-1
6.656276833E0,2.836302295E-2,-8.797971532E-3,6.469991803E-1,6.476803260E-1
6.666296833E0,2.430042624E-2,1.289537828E-2,6.707628965E-1,6.713267944E-1
6.676317833E0,3.095060587E-2,8.183180355E-3,7.005265951E-1,7.012577379E-1
6.686337833E0,2.062467486E-2,-4.950501956E-3,7.417278290E-1,7.420310350E-1
6.696357833E0,3.192127496E-2,2.022622339E-2,7.701741457E-1,7.711006955E-1
6.706377833E0,2.115887590E-2,-9.405449964E-3,7.994936705E-1,7.998289127E-1
6.716398833E0,3.209035099E-2,1.009155251E-2,8.224565387E-1,8.231442086E-1
6.726418833E0,3.079881147E-2,6.428408902E-3,8.386211395E-1,8.392111218E-1
6.736438833E0,3.494748473E-2,4.286428448E-3,8.563700914E-1,8.570935968E-1
6.746458833E0,3.287432343E-2,1.091444585E-2,8.827277422E-1,8.834071050E-1
6.756479833E0,3.627811372E-2,1.172724273E-2,9.038923979E-1,9.046961350E-1
6.766499833E0,3.066528589E-2,1.123014605E-3,9.204372168E-1,9.209485821E-1
6.776519833E0,4.175122455E-2,1.544283144E-2,9.358838201E-1,9.369419248E-1
6.786539833E0,3.468080610E-2,-4.924084060E-3,9.489147067E-1,9.495610173E-1
6.796560833E0,3.928408027E-2,1.724460162E-2,9.596821666E-1,9.606406592E-1
6.806580833E0,3.513009846E-2,3.544539446E-3,9.683769941E-1,9.690204798E-1
6.816600833E0,3.707420453E-2,1.860622666E-3,9.758372903E-1,9.765430742E-1
6.826620833E0,3.524092585E-2,1.372591406E-2,9.793155789E-1,9.800455738E-1
6.836641833E0,4.087910056E-2,7.779607084E-3,9.820277095E-1,9.829089710E-1
6.846661833E0,3.467856720E-2,4.051294178E-3,9.864581227E-1,9.870758045E-1
6.856681833E0,3.600695357E-2,6.270240061E-3,9.882062674E-1,9.888819158E-1
6.866701833E0,3.752304614E-2,6.690904032E-3,9.907196164E-1,9.914525231E-1
6.876722833E0,3.659839556E-2,4.317761399E-3,9.880292416E-1,9.887162726E-1
6.886742833E0,3.688227013E-2,6.303240545E-3,9.773441553E-1,9.780601365E-1
6.896762833E0,3.683033958E-2,5.290173925E-3,9.671964645E-1,9.679119076E-1
6.906782833E0,3.701753914E-2,3.011929104E-3,9.532433748E-1,9.539666145E-1
6.916803833E0,3.749105334E-2,9.741470218E-3,9.439446926E-1,9.447391481E-1
6.926823833E0,3.515601158E-2,3.012105823E-3,9.382202029E-1,9.388834683E-1
6.936843833E0,3.730438277E-2,9.520338848E-3,9.290578365E-1,9.298552132E-1
6.946863833E0,3.404999897E-2,5.514412187E-3,9.089818597E-1,9.096360989E-1
6.956884833E0,3.564549983E-2,8.681708947E-3,8.853018284E-1,8.860616802E-1
6.966904833E0,3.426063806E-2,3.124847077E-3,8.612886667E-1,8.619754773E-1
6.976924833E0,3.494853154E-2,7.433575578E-3,8.439581990E-1,8.447142118E-1
6.986944833E0,3.032156080E-2,1.473759650E-3,8.258196115E-1,8.263773955E-1
6.996965833E0,3.315116838E-2,1.096340176E-2,8.074099422E-1,8.081645939E-1
7.006985833E0,2.754381672E-2,-3.623177763E-4,7.779066563E-1,7.783942182E-1
7.017005833E0,3.053561226E-2,7.179221604E-3,7.454680204E-1,7.461276930E-1
7.027025833E0,2.814782038E-2,2.260895912E-3,7.122948766E-1,7.128544049E-1
7.037046833E0,2.511177212E-2,7.433440071E-3,6.813768148E-1,6.818799168E-1
7.047066833E0,2.449142188E-2,1.906739548E-3,6.534346938E-1,6.538962949E-1
7.057086833E0,2.409834042E-2,5.624512210E-3,6.238613725E-1,6.243519658E-1
7.067106833E0,2.285457030E-2,5.043086596E-3,5.912538767E-1,5.917169178E-1
7.077127833E0,2.160475031E-2,9.364922298E-4,5.513128042E-1,5.517367582E-1
7.087147208E0,1.814600080E-2,4.365668632E-3,5.103015900E-1,5.106427804E-1
7.097167208E0,2.057640254E-2,-1.811459661E-4,4.700183272E-1,4.704685421E-1
7.107187208E0,1.444893982E-2,-3.545006737E-3,4.346451163E-1,4.348996621E-1
7.117208208E0,1.733820327E-2,-1.648569480E-3,3.974066675E-1,3.977881225E-1
7.127228208E0,1.156166382E-2,-7.575391792E-3,3.582253158E-1,3.584918904E-1
7.137248208E0,1.350443996E-2,-6.385224871E-3,3.157034218E-1,3.160566271E-1
7.147268208E0,6.760480348E-3,-1.487941667E-2,2.680456638E-1,2.685434398E-1
7.157289208E0,1.115096733E-2,1.803618856E-2,2.305464894E-1,2.315196146E-1
7.167309208E0,2.419386990E-3,-9.338662028E-3,2.026122063E-1,2.028417368E-1
7.177329208E0,1.729628537E-3,-9.124209173E-4,1.756258607E-1,1.756367475E-1
7.187349208E0,8.815934882E-3,1.440624148E-2,1.271414310E-1,1.282583485E-1
7.197370208E0,-6.316944957E-3,-1.221418381E-2,6.918092072E-2,7.053431698E-2
7.207390208E0,4.848971032E-3,1.280348375E-2,1.714465581E-2,2.194039514E-2
7.217410208E0,-5.301933736E-3,-1.260227337E-2,-2.210341394E-2,2.599016551E-2
7.227430208E0,2.448172774E-3,2.626592061E-3,-5.388440192E-2,5.400390084E-2
7.237451208E0,-3.645672463E-3,-4.095759243E-3,-8.273549378E-2,8.291699526E-2
7.247471208E0,-1.893548295E-3,-7.635355461E-3,-1.267031729E-1,1.269471473E-1
7.257491208E0,-8.944800124E-3,-1.749464311E-2,-1.785708964E-1,1.796486488E-1
7.267511208E0,-5.017507821E-3,-6.562224589E-3,-2.314744741E-1,2.316218261E-1
7.277532208E0,-6.179179065E-3,2.224076539E-3,-2.690671086E-1,2.691472417E-1
7.287552208E0,-1.008821279E-2,-2.628319198E-3,-2.957132459E-1,2.958969481E-1
7.297572208E0,-9.356109425E-3,-9.055200499E-4,-3.249022663E-1,3.250382122E-1
7.307592208E0,-1.437905151E-2,-3.129942575E-3,-3.646024466E-1,3.648992980E-1
7.317613208E0,-1.558093634E-2,-5.547826178E-3,-4.139398932E-1,4.142701765E-1
7.327633208E0,-1.961582899E-2,-1.353857806E-3,-4.549346566E-1,4.553593696E-1
7.337653208E0,-1.891781390E-2,-2.835640451E-3,-4.919134676E-1,4.922852671E-1
7.347673208E0,-2.167834714E-2,-4.514364526E-3,-5.177153349E-1,5.181886705E-1
7.357694208E0,-2.193454280E-2,-3.893848043E-3,-5.439767241E-1,5.444326980E-1
7.367714208E0,-2.384153754E-2,-6.261366419E-3,-5.740820765E-1,5.746110460E-1
7.377734208E0,-2.385379001E-2,-7.836892270E-3,-6.139527559E-1,6.144659524E-1
7.387754208E0,-2.686868235E-2,-5.578963086E-3,-6.520692706E-1,6.526464469E-1
7.397775208E0,-2.474587783E-2,-5.202658474E-3,-6.823281050E-1,6.827965063E-1
7.407795208E0,-2.841977030E-2,-6.461823359E-3,-7.034593225E-1,7.040628217E-1
7.417815208E0,-2.829379961E-2,-3.978691995E-3,-7.212876081E-1,7.218532973E-1
7.427835208E0,-2.759608626E-2,-2.888605930E-3,-7.461550236E-1,7.466707489E-1
7.437856208E0,-2.826640382E-2,-4.830849357E-3,-7.750574946E-1,7.755878072E-1
7.447876208E0,-3.128108382E-2,-6.378037855E-3,-8.092044592E-1,8.098339597E-1
7.457896208E0,-3.555252776E-2,-7.228652015E-3,-8.272396326E-1,8.280348093E-1
7.467916208E0,-3.395110369E-2,-7.034993265E-3,-8.398134708E-1,8.405289016E-1
7.477937208E0,-3.083467484E-2,-5.931379739E-3,-8.486972451E-1,8.492779123E-1
7.487957208E0,-3.437703848E-2,-7.400437258E-3,-8.655498028E-1,8.662638214E-1
7.497977208E0,-3.148884326E-2,-9.389818646E-3,-8.836353421E-1,8.842460821E-1
7.507997208E0,-3.334353492E-2,-7.663651835E-3,-9.045740962E-1,9.052208672E-1
7.518018208E0,-3.323594108E-2,-6.084396970E-3,-9.146168828E-1,9.152407825E-1
7.528038208E0,-3.517359495E-2,-8.086273447E-3,-9.208113551E-1,9.215183782E-1
7.538058208E0,-3.432111815E-2,-8.399993181E-3,-9.186477661E-1,9.193270458E-1
7.548078208E0,-3.765956685E-2,-7.023371756E-3,-9.237518907E-1,9.245459027E-1
7.558099208E0,-3.435005620E-2,-8.715012111E-3,-9.297741055E-1,9.304492276E-1
7.568119208E0,-3.606957570E-2,-8.329985663E-3,-9.375012517E-1,9.382318476E-1
7.578139208E0,-3.635027260E-2,-7.339023985E-3,-9.417564273E-1,9.424862715E-1
7.588159208E0,-3.771182150E-2,-8.179932833E-3,-9.359632134E-1,9.367583625E-1
7.598180208E0,-3.468540311E-2,-6.112786941E-3,-9.280583858E-1,9.287264457E-1
7.608200208E0,-3.506506234E-2,-8.332394063E-3,-9.190591574E-1,9.197655800E-1
7.618220208E0,-3.303600103E-2,-2.288882388E-3,-9.159733653E-1,9.165717769E-1
7.628240208E0,-3.876838461E-2,-6.671258714E-3,-9.150693417E-1,9.159145120E-1
7.638261208E0,-3.473129869E-2,-5.822242703E-3,-9.074133039E-1,9.080963967E-1
7.648281208E0,-3.538879007E-2,-6.708721630E-3,-8.900556564E-1,8.907841742E-1
7.658301208E0,-3.278049082E-2,-7.363162003E-4,-8.690550327E-1,8.696733597E-1
7.668321208E0,-3.687708080E-2,-9.878092445E-3,-8.528846502E-1,8.537386734E-1
7.678342208E0,-2.933127619E-2,-1.249716850E-3,-8.384410143E-1,8.389548379E-1
7.688362208E0,-3.065436706E-2,-9.010446258E-3,-8.230533004E-1,8.236732445E-1
7.698382208E0,-2.653925121E-2,-1.193801640E-3,-8.050239086E-1,8.054621347E-1
7.708402208E0,-3.101137094E-2,-6.520611700E-3,-7.816125154E-1,7.822546566E-1
7.718423208E0,-2.899376117E-2,-5.815939512E-3,-7.527763247E-1,7.533569263E-1
7.728443208E0,-2.301049046E-2,-4.842210561E-3,-7.284211516E-1,7.288005926E-1
7.738463208E0,-2.609895915E-2,-4.709585104E-3,-7.050758600E-1,7.055744498E-1
7.748483208E0,-2.454589680E-2,-3.264053725E-3,-6.800135374E-1,6.804642284E-1
7.758504208E0,-2.582767606E-2,-6.110706367E-3,-6.543246508E-1,6.548627018E-1
7.768524208E0,-2.664612234E-2,-4.836939275E-3,-6.227410436E-1,6.233296232E-1
7.778544208E0,-2.460028231E-2,-3.098960500E-3,-5.895319581E-1,5.900531392E-1
7.788564208E0,-2.488547936E-2,-4.381527659E-3,-5.527269840E-1,5.533042596E-1
7.798585208E0,-1.995596662E-2,3.571204143E-3,-5.185570717E-1,5.189532067E-1
7.808605208E0,-2.096908540E-2,3.527870402E-3,-4.861288071E-1,4.865936348E-1
7.818625208E0,-1.605475508E-2,6.258675829E-3,-4.471632838E-1,4.474951716E-1
7.828645208E0,-1.902592182E-2,7.940215990E-3,-4.037897587E-1,4.043157206E-1
7.838666208E0,-1.350651961E-2,7.530089468E-3,-3.680799603E-1,3.684046492E-1
7.848686208E0,-1.494899951E-2,2.318021283E-2,-3.281334043E-1,3.292906404E-1
7.858706208E0,-8.397622034E-3,-2.420567721E-2,-2.988889515E-1,2.999850667E-1
7.868726208E0,-2.741305530E-2,-1.976446807E-2,-2.773470283E-1,2.793984321E-1
7.878747208E0,4.298803397E-3,3.521143273E-2,-2.530528903E-1,2.555270827E-1
7.888767208E0,-2.774206735E-2,-3.128551692E-2,-2.104176283E-1,2.145320120E-1
7.898787208E0,4.047820810E-3,2.498015389E-2,-1.518741548E-1,1.539680221E-1
7.908807208E0,-8.307152428E-3,-6.557038054E-3,-9.360840917E-2,9.420476525E-2
7.918828208E0,-1.434599049E-3,-7.490475662E-3,-5.266497284E-2,5.321432762E-2
7.928848208E0,7.709837519E-4,8.404416963E-3,-3.156847879E-2,3.267717083E-2
7.938868208E0,-1.832274720E-4,-9.912005626E-3,-6.801878568E-3,1.202276923E-2
7.948888208E0,3.909449093E-3,7.673282176E-3,2.931088768E-2,3.054981486E-2
7.958909208E0,3.357642330E-3,3.613072913E-4,8.222176880E-2,8.229109046E-2
7.968929208E0,4.411741626E-3,-3.015137510E-3,1.358535439E-1,1.359585963E-1
7.978949208E0,4.607750103E-3,2.931701019E-3,1.785248369E-1,1.786083526E-1
7.988969208E0,4.711266607E-3,3.069564700E-4,2.110571712E-1,2.111099708E-1
7.998990208E0,8.953149430E-3,1.964507857E-3,2.331238538E-1,2.333039849E-1
8.009010208E0,1.088054664E-2,2.681792947E-3,2.600076497E-1,2.602490273E-1
8.019030208E0,8.424846455E-3,-5.726818927E-5,3.090470731E-1,3.091618908E-1
8.029050208E0,1.719139144E-2,5.678196438E-3,3.582015932E-1,3.586588451E-1
8.039071208E0,1.495593414E-2,-1.962679205E-3,4.033144712E-1,4.035964504E-1
8.049091208E0,1.953760535E-2,4.069902934E-4,4.337485135E-1,4.341885035E-1
8.059111208E0,1.761746593E-2,-2.468957566E-3,4.537027776E-1,4.540514082E-1
8.069131208E0,1.849402301E-2,-2.319611609E-3,4.762054682E-1,4.765700971E-1
8.079152458E0,1.975875907E-2,8.325056406E-4,5.085509419E-1,5.089353222E-1
8.089172458E0,2.130403928E-2,7.751899771E-3,5.466378331E-1,5.471077359E-1
8.099192458E0,2.848844975E-2,1.217194833E-2,5.792679787E-1,5.800958017E-1
8.109212458E0,1.766691916E-2,-2.198666520E-2,6.107267141E-1,6.113776679E-1
8.119233458E0,3.091401421E-2,2.735478617E-2,6.321172118E-1,6.334635981E-1
8.129253458E0,2.196752280E-2,-8.752234280E-3,6.573591828E-1,6.577843635E-1
8.139273458E0,2.035071701E-2,1.025554538E-2,6.787310839E-1,6.791135488E-1
8.149293458E0,3.199277818E-2,1.664894447E-2,7.061260939E-1,7.070465230E-1
8.159314458E0,1.790199429E-2,-1.701527461E-2,7.281478047E-1,7.285665560E-1
8.169334458E0,3.545973450E-2,3.014443628E-2,7.517011166E-1,7.531405237E-1
8.179354458E0,2.255006135E-2,-8.066332899E-3,7.713062167E-1,7.716779451E-1
8.189374458E0,3.011232242E-2,9.466133080E-3,7.872079015E-1,7.878404913E-1
8.199395458E0,3.102978133E-2,1.862101629E-2,8.022385240E-1,8.030543188E-1
8.209415458E0,2.833838016E-2,-8.630078286E-3,8.153911829E-1,8.159291165E-1
8.219435458E0,3.750338405E-2,2.291666344E-2,8.284164667E-1,8.295815328E-1
8.229455458E0,3.114304692E-2,1.973263221E-3,8.401535153E-1,8.407328425E-1
8.239476458E0,3.283042461E-2,5.241228268E-3,8.527207375E-1,8.533685976E-1
8.249496458E0,3.823455423E-2,1.427451335E-2,8.670054674E-1,8.679655082E-1
8.259516458E0,3.239370883E-2,1.523564802E-3,8.742665648E-1,8.748678186E-1
8.269536458E0,3.342245519E-2,7.858681493E-3,8.790609837E-1,8.797312274E-1
8.279557458E0,3.392685950E-2,1.120760664E-2,8.819393516E-1,8.826628247E-1
8.289577458E0,3.052460030E-2,-1.538867597E-3,8.811500669E-1,8.816799644E-1
8.299597458E0,3.474890813E-2,1.211808901E-2,8.798962235E-1,8.806654864E-1
8.309617458E0,3.148957342E-2,2.461406169E-3,8.791471124E-1,8.797143269E-1
8.319638458E0,3.218572587E-2,7.189049851E-3,8.755846024E-1,8.762054549E-1
8.329658458E0,3.300131112E-2,1.014440786E-2,8.746126890E-1,8.752938657E-1
8.339678458E0,3.002203256E-2,3.022848861E-3,8.684118390E-1,8.689358907E-1
8.349698458E0,3.486391157E-2,1.003824268E-2,8.575120568E-1,8.582792006E-1
8.359719458E0,3.202391416E-2,1.580842305E-3,8.465563655E-1,8.471633314E-1
8.369739458E0,3.391422704E-2,1.011467539E-2,8.365638852E-1,8.373121374E-1
8.379759458E0,3.220181540E-2,3.579012118E-3,8.212307692E-1,8.218696627E-1
8.389779458E0,3.317538649E-2,7.726422045E-3,8.115211129E-1,8.122356928E-1
8.399800458E0,3.173860908E-2,4.901873413E-3,7.958960533E-1,7.965437184E-1
8.409820458E0,3.176516294E-2,6.919285748E-3,7.791993618E-1,7.798772644E-1
8.419840458E0,2.520446479E-2,6.810975028E-4,7.584240437E-1,7.588430397E-1
8.429860458E0,3.006497025E-2,7.518219762E-3,7.360022664E-1,7.366544388E-1
8.439881458E0,2.632535622E-2,1.419047941E-3,7.133467793E-1,7.138337801E-1
8.449901458E0,2.826262265E-2,6.038232706E-3,6.921586990E-1,6.927617922E-1
8.459921458E0,2.284548618E-2,2.087166999E-3,6.722750068E-1,6.726663045E-1
8.469941458E0,2.566030622E-2,5.186599679E-3,6.457633972E-1,6.462938320E-1
8.479962458E0,2.315986343E-2,2.777770394E-3,6.161733270E-1,6.166146805E-1
8.489982458E0,2.187441662E-2,4.866509698E-3,5.818305612E-1,5.822619470E-1
8.500002458E0,1.897290349E-2,3.946121782E-3,5.552604795E-1,5.555985448E-1
8.510022458E0,2.306518704E-2,6.114321761E-3,5.246300101E-1,5.251723863E-1
8.520043458E0,1.900679618E-2,4.727081396E-3,4.973815978E-1,4.977670714E-1
8.530063458E0,1.621944830E-2,4.181975033E-3,4.670170844E-1,4.673173617E-1
8.540083458E0,1.654195786E-2,4.074117169E-3,4.325906634E-1,4.329259947E-1
8.550103458E0,1.784908026E-2,4.163713194E-3,3.954295516E-1,3.958540848E-1
8.560124458E0,1.493211929E-2,-8.416981436E-4,3.594907224E-1,3.598016900E-1
8.570144458E0,1.890217513E-2,2.584124450E-3,3.258153796E-1,3.263734541E-1
8.580164458E0,1.136329863E-2,-1.333651599E-4,2.909063995E-1,2.911282803E-1
8.590184458E0,1.258968376E-2,5.303810351E-3,2.575243413E-1,2.578864419E-1
8.600205458E0,8.286814205E-3,-4.472387955E-3,2.146189660E-1,2.148254503E-1
8.610225458E0,6.701261271E-3,-7.100426592E-3,1.716951579E-1,1.719725275E-1
8.620245458E0,6.255980581E-3,6.448138971E-3,1.310694367E-1,1.313769882E-1
8.630265458E0,3.246793989E-3,-1.475854591E-2,9.706615657E-2,9.823540654E-2
8.640286458E0,-6.528729573E-4,-8.086794987E-3,6.016433239E-2,6.070889052E-2
8.650306458E0,-5.379170179E-4,-6.115023512E-3,1.519514434E-2,1.638826650E-2
8.660326458E0,-3.427713178E-3,4.626038019E-3,-1.310626790E-2,1.431515643E-2
8.670346458E0,-3.912156448E-3,-5.367512815E-3,-3.934044763E-2,3.989719266E-2
8.680367458E0,-6.700485945E-3,-1.012978144E-3,-7.243208587E-2,7.274839998E-2
8.690387458E0,-3.318114206E-3,2.763111610E-3,-1.191361845E-1,1.192144082E-1
8.700407458E0,-1.314198226E-2,-2.388314717E-2,-1.688347608E-1,1.710213228E-1
8.710427458E0,-5.019950680E-3,8.025124669E-3,-2.054163665E-1,2.056343506E-1
8.720447458E0,-1.356576756E-2,-9.000730701E-3,-2.358411103E-1,2.364023531E-1
8.730468458E0,-3.975019790E-3,5.447414704E-3,-2.628923059E-1,2.629787816E-1
8.740488458E0,-1.326465886E-2,-7.802077569E-3,-2.907918394E-1,2.911987593E-1
8.750508458E0,-6.791971624E-3,2.208363730E-3,-3.271634579E-1,3.272414031E-1
8.760528458E0,-1.581342891E-2,-1.063393150E-2,-3.689764142E-1,3.694681844E-1
8.770549458E0,-1.403025538E-2,-1.289559761E-3,-4.063257873E-1,4.065699896E-1
8.780569458E0,-1.577356085E-2,-6.187645253E-3,-4.349925816E-1,4.353224532E-1
8.790589458E0,-1.584886946E-2,-2.933045384E-3,-4.549056590E-1,4.551911115E-1
8.800610458E0,-1.692478731E-2,-3.453959711E-3,-4.821878970E-1,4.824971982E-1
8.810630458E0,-2.179660089E-2,-2.955448814E-3,-5.122867823E-1,5.127587871E-1
8.820650458E0,-2.181630768E-2,-6.232202519E-3,-5.469847918E-1,5.474551617E-1
8.830670458E0,-2.588843554E-2,-6.026662886E-3,-5.795065165E-1,5.801157939E-1
8.840690458E0,-2.837449312E-2,-5.032771267E-3,-6.062664986E-1,6.069509930E-1
8.850711458E0,-2.260010689E-2,-6.681755185E-3,-6.244623661E-1,6.249069190E-1
8.860731458E0,-2.643718943E-2,-3.813797375E-3,-6.417308450E-1,6.422864995E-1
8.870751458E0,-2.702640370E-2,-3.467098577E-3,-6.640919447E-1,6.646507040E-1
8.880771458E0,-2.679098025E-2,-4.976046272E-3,-6.912924051E-1,6.918292470E-1
8.890792458E0,-2.789288387E-2,-5.158796441E-3,-7.180550098E-1,7.186150731E-1
8.900812458E0,-2.977387607E-2,-6.068532355E-3,-7.361143827E-1,7.367412675E-1
8.910832458E0,-2.920110896E-2,-4.748600535E-3,-7.477247715E-1,7.483098208E-1
8.920853458E0,-2.828551456E-2,-3.831940237E-3,-7.568053603E-1,7.573434541E-1
8.930873458E0,-2.951245382E-2,-3.766071051E-3,-7.677549124E-1,7.683311615E-1
8.940893458E0,-2.737287059E-2,-6.768785417E-3,-7.888926864E-1,7.893964537E-1
8.950913458E0,-3.158429265E-2,-6.445636041E-3,-8.056420684E-1,8.062867084E-1
8.960933458E0,-3.030357882E-2,-6.034443155E-3,-8.114001155E-1,8.119882196E-1
8.970954458E0,-3.052953631E-2,-5.004354753E-3,-8.173077703E-1,8.178930783E-1
8.980974458E0,-3.076868877E-2,-5.569742993E-3,-8.158504963E-1,8.164494881E-1
8.990994458E0,-3.395313025E-2,-7.383220363E-3,-8.189923763E-1,8.197291257E-1
9.001014458E0,-3.182553127E-2,-6.084130611E-3,-8.277837038E-1,8.284176129E-1
9.011035458E0,-3.270886093E-2,-8.018541150E-3,-8.347131610E-1,8.353922598E-1
9.021055458E0,-3.130990267E-2,-4.419545643E-3,-8.391532302E-1,8.397487637E-1
9.031075458E0,-3.413627297E-2,-8.509805426E-3,-8.312785625E-1,8.320226863E-1
9.041095458E0,-3.045365773E-2,-6.673289929E-3,-8.253178596E-1,8.259064884E-1
9.051116458E0,-2.896372601E-2,-6.150385365E-3,-8.196186423E-1,8.201533049E-1
9.061136458E0,-3.104259074E-2,-6.023884751E-3,-8.172414899E-1,8.178530323E-1
9.071156458E0,-3.267769516E-2,-5.437861197E-3,-8.136975169E-1,8.143715682E-1
9.081176083E0,-3.045874834E-2,-6.050921045E-3,-8.053852320E-1,8.059836976E-1
9.091197083E0,-3.090311959E-2,-4.823261406E-3,-7.933548689E-1,7.939711674E-1
9.101217083E0,-3.070977330E-2,-5.278661847E-3,-7.743939757E-1,7.750206346E-1
9.111237083E0,-2.998372167E-2,-5.353903398E-3,-7.582702041E-1,7.588816708E-1
9.121257083E0,-3.134140000E-2,-4.978397861E-3,-7.469121218E-1,7.475859719E-1
9.131278083E0,-2.609000355E-2,-3.522747662E-3,-7.327748537E-1,7.332476282E-1
9.141298083E0,-2.807059884E-2,-4.277220927E-3,-7.135776877E-1,7.141424015E-1
9.151318083E0,-2.550625429E-2,-4.891982302E-3,-6.943734884E-1,6.948590087E-1
9.161338083E0,-2.418931946E-2,-4.756161012E-3,-6.697314978E-1,6.701850665E-1
9.171359083E0,-2.534029633E-2,-3.466543509E-3,-6.461730599E-1,6.466790324E-1
9.181379083E0,-2.172851562E-2,-6.833045743E-3,-6.239846349E-1,6.244002270E-1
9.191399083E0,-2.286145464E-2,-3.799183760E-3,-6.087945700E-1,6.092355114E-1
9.201419083E0,-2.099085040E-2,-4.746203776E-3,-5.822178125E-1,5.826154165E-1
9.211440083E0,-2.189469337E-2,-3.410016652E-3,-5.549761653E-1,5.554183557E-1
9.221460083E0,-1.822965220E-2,-1.594273373E-3,-5.217939615E-1,5.221147385E-1
9.231480083E0,-2.130454034E-2,-3.349562641E-3,-4.901215136E-1,4.905957614E-1
9.241500083E0,-1.887200773E-2,4.099565092E-3,-4.665144384E-1,4.669139967E-1
9.251521083E0,-1.917600818E-2,-3.200350329E-3,-4.355002642E-1,4.359339877E-1
9.261541083E0,-1.563879848E-2,4.830677062E-4,-4.038515389E-1,4.041545136E-1
9.271561083E0,-1.599507779E-2,2.487020101E-3,-3.681068420E-1,3.684625828E-1
9.281581083E0,-1.285521127E-2,1.909380429E-3,-3.292422891E-1,3.294986906E-1
9.291602083E0,-1.415843144E-2,7.701608818E-3,-2.976150811E-1,2.980511910E-1
9.301622083E0,-9.536515921E-3,1.428201329E-2,-2.616166174E-1,2.621796628E-1
9.311642083E0,-1.226233970E-2,-5.356799811E-3,-2.237977237E-1,2.241974161E-1
9.321662083E0,-7.031891495E-3,2.786666714E-2,-1.889494658E-1,1.911227335E-1
9.331683083E0,-1.769188792E-3,-2.090865001E-2,-1.633182466E-1,1.646607159E-1
9.341703083E0,-2.126139775E-2,-2.702246979E-2,-1.401769817E-1,1.443324188E-1
9.351723083E0,1.101569366E-2,4.963336885E-2,-1.103015617E-1,1.214547295E-1
9.361743083E0,-1.879573241E-2,-2.165226266E-2,-6.959354877E-2,7.526859947E-2
9.371764083E0,1.302188449E-2,2.250455879E-2,-2.445213310E-2,3.569217639E-2
9.381784083E0,3.741566557E-3,5.410525948E-3,2.222509123E-2,2.317817490E-2
9.391804083E0,-5.002328195E-3,-2.710425109E-2,5.670990422E-2,6.305296941E-2
9.401824083E0,1.424194034E-2,2.952999994E-2,7.854436338E-2,8.511210713E-2
9.411845083E0,-4.743013531E-3,-2.202200331E-2,1.039417237E-1,1.063548153E-1
9.421865083E0,1.247458905E-2,1.789771765E-2,1.386240721E-1,1.403302427E-1
9.431885083E0,8.086154237E-3,-4.079830833E-4,1.836721897E-1,1.838505524E-1
9.441905083E0,1.013758779E-2,5.120472983E-3,2.263477594E-1,2.266325177E-1
9.451926083E0,8.701869287E-3,-3.733813995E-3,2.607750893E-1,2.609469507E-1
9.461946083E0,1.234560646E-2,4.946227185E-3,2.862210572E-1,2.865298810E-1
9.471966083E0,1.194237266E-2,-4.245808814E-4,3.082653284E-1,3.084968610E-1
9.481986083E0,1.162226032E-2,-1.066935249E-3,3.355494142E-1,3.357523263E-1
9.492007083E0,1.469859481E-2,4.339830019E-3,3.734597564E-1,3.737740928E-1
9.502027083E0,1.350922696E-2,-5.078439135E-3,4.151933491E-1,4.154441080E-1
9.512047083E0,1.934203506E-2,1.125742914E-3,4.484828711E-1,4.489011776E-1
9.522067083E0,1.671003364E-2,-3.112145234E-3,4.723466635E-1,4.726523894E-1
9.532088083E0,1.814882830E-2,1.526339678E-3,4.840564728E-1,4.843989869E-1
9.542108083E0,1.783723757E-2,6.340003572E-3,5.015789866E-1,5.019360941E-1
9.552128083E0,2.925087139E-2,2.131526917E-2,5.225036740E-1,5.237557098E-1
9.562148083E0,1.362051256E-2,-1.962257735E-2,5.580270290E-1,5.585380283E-1
9.572169083E0,3.269885480E-2,3.892159089E-2,5.875965357E-1,5.897913140E-1
9.582189083E0,1.917745173E-2,-1.112266816E-2,6.124984026E-1,6.128994873E-1
9.592209083E0,2.103394270E-2,-1.285483129E-3,6.338681579E-1,6.342183542E-1
9.602229083E0,3.025877103E-2,2.145627886E-2,6.459556222E-1,6.470198072E-1
9.612250083E0,1.641794667E-2,-1.390724536E-2,6.660869122E-1,6.664343441E-1
9.622270083E0,3.063443303E-2,2.558157407E-2,6.808543801E-1,6.820231465E-1
9.632290083E0,2.306496352E-2,2.519942354E-4,6.908913851E-1,6.912763283E-1
9.642310083E0,2.766663767E-2,7.099513896E-3,7.095963359E-1,7.101709694E-1
9.652331083E0,2.786374465E-2,1.631938852E-2,7.239579558E-1,7.246777439E-1
9.662351083E0,3.002782911E-2,8.309768746E-4,7.371028066E-1,7.377146525E-1
9.672371083E0,3.048015386E-2,6.955759600E-3,7.500289083E-1,7.506802153E-1
9.682391083E0,3.367701545E-2,9.194146842E-3,7.606613040E-1,7.614619446E-1
9.692412083E0,2.704580501E-2,-6.864158902E-3,7.673067451E-1,7.678139314E-1
9.702432083E0,4.056107998E-2,2.113205381E-2,7.732424140E-1,7.745938263E-1
9.712452083E0,2.890975587E-2,-5.257137120E-3,7.753533721E-1,7.759099581E-1
9.722472083E0,3.520600125E-2,1.214875095E-2,7.792887092E-1,7.801781507E-1
9.732493083E0,3.214306384E-2,7.894535549E-3,7.832422853E-1,7.839413101E-1
9.742513083E0,3.285758942E-2,1.017454662E-3,7.843880057E-1,7.850765567E-1
9.752533083E0,2.893748321E-2,8.338844404E-3,7.788858414E-1,7.794678108E-1
9.762553083E0,2.755477093E-2,4.354755394E-3,7.752950788E-1,7.757968087E-1
9.772574083E0,2.848082781E-2,1.822550315E-3,7.693104744E-1,7.698396491E-1
9.782594083E0,2.711302787E-2,8.732387796E-3,7.614911795E-1,7.620237446E-1
9.792614083E0,2.571040392E-2,-5.109559279E-4,7.560608983E-1,7.564980951E-1
9.802634083E0,2.763826586E-2,8.459636010E-3,7.523719072E-1,7.529269061E-1
9.812655083E0,2.670447901E-2,3.481455613E-3,7.406457067E-1,7.411351513E-1
9.822675083E0,3.002650663E-2,7.739583962E-3,7.288478613E-1,7.295071605E-1
9.832695083E0,2.880344912E-2,3.259733785E-3,7.119137049E-1,7.125036054E-1
9.842715083E0,2.884232998E-2,-5.262158811E-4,6.981542110E-1,6.987499262E-1
9.852736083E0,2.786678262E-2,5.966825411E-3,6.871992350E-1,6.877899019E-1
9.862756083E0,2.869156376E-2,7.869121619E-3,6.715790033E-1,6.722376712E-1
9.872776083E0,2.515010536E-2,6.717649521E-4,6.514200568E-1,6.519057213E-1
9.882796083E0,2.553519607E-2,1.127167884E-2,6.366743445E-1,6.372858997E-1
9.892817083E0,1.996545121E-2,-3.496983554E-3,6.128754616E-1,6.132105507E-1
9.902837083E0,2.478843555E-2,5.371076055E-3,5.876854062E-1,5.882324810E-1
9.912857083E0,2.242901176E-2,2.646543318E-3,5.624812245E-1,5.629344480E-1
9.922877083E0,1.954214275E-2,6.989736576E-4,5.424310565E-1,5.427834144E-1
9.932898083E0,2.022637799E-2,7.209433243E-3,5.206775665E-1,5.211201499E-1
9.942918083E0,1.850890554E-2,-2.024811693E-3,4.941250682E-1,4.944757451E-1
9.952938083E0,1.677782089E-2,6.101546809E-3,4.637812376E-1,4.641247252E-1
9.962958083E0,1.713415235E-2,4.516502377E-4,4.321279824E-1,4.324677749E-1
9.972979083E0,1.578868926E-2,1.212237170E-3,4.030057192E-1,4.033167018E-1
9.982999083E0,1.590666734E-2,3.824532032E-3,3.739029467E-1,3.742606881E-1
9.993019083E0,1.624966785E-2,-3.482822794E-4,3.470239937E-1,3.474044116E-1
1.000303908E1,1.490903087E-2,5.357007496E-3,3.199324608E-1,3.203244546E-1
1.001305908E1,1.212713495E-2,1.094464329E-3,2.879621089E-1,2.882194327E-1
1.002308008E1,1.119529549E-2,1.838018885E-3,2.542595267E-1,2.545125142E-1
1.003310008E1,9.864564054E-3,3.261134028E-3,2.190312594E-1,2.192775347E-1
1.004312008E1,1.199296210E-2,-2.749087522E-3,1.876711994E-1,1.880741017E-1
1.005314108E1,8.476543240E-3,7.334359689E-4,1.562426537E-1,1.564741402E-1
1.006316108E1,2.854876220E-3,4.471461289E-4,1.260751635E-1,1.261082753E-1
1.007318108E1,1.461181790E-3,3.726244904E-5,8.946542442E-2,8.947736366E-2
1.008320133E1,2.864617854E-4,2.920666942E-3,5.247411504E-2,5.255611387E-2
1.009322133E1,-2.013687044E-3,-6.482971366E-4,1.827847771E-2,1.840048837E-2
1.010324233E1,-2.980791032E-4,-2.141531557E-3,-1.335242111E-2,1.352635051E-2
1.011326233E1,-4.478831775E-3,-1.481644344E-3,-4.935504869E-2,4.957999632E-2
1.012328233E1,-4.247136414E-3,-1.508808695E-3,-7.951081544E-2,7.963846083E-2
1.013330233E1,-7.154961117E-3,-3.585875733E-3,-1.139246821E-1,1.142054516E-1
1.014332333E1,-7.295575924E-3,-5.174984224E-3,-1.435211897E-1,1.437996446E-1
1.015334333E1,-8.405189030E-3,-3.413454629E-3,-1.780450344E-1,1.782760027E-1
1.016336333E1,-9.291754104E-3,-5.673679523E-3,-2.125814408E-1,2.128600392E-1
1.017338333E1,-6.584918126E-3,-5.324468948E-4,-2.470134497E-1,2.471017786E-1
1.018340433E1,-1.243801322E-2,-8.500890806E-3,-2.785900235E-1,2.789970798E-1
1.019342433E1,-8.014301769E-3,-3.749371273E-3,-3.062290847E-1,3.063568820E-1
1.020344433E1,-1.326232683E-2,-5.256187171E-3,-3.310015500E-1,3.313088331E-1
1.021346433E1,-1.366476156E-2,-5.466322415E-3,-3.643371463E-1,3.646342860E-1
1.022348533E1,-1.539102197E-2,-5.176570266E-3,-3.930066228E-1,3.933419454E-1
1.023350533E1,-1.628405601E-2,-7.945054211E-3,-4.213705063E-1,4.217598818E-1
1.024352533E1,-1.786597446E-2,-7.877675816E-3,-4.463402927E-1,4.467671739E-1
1.025354533E1,-1.733555272E-2,-7.998513058E-3,-4.726776481E-1,4.730630577E-1
1.026356633E1,-2.082269639E-2,-8.895466104E-3,-4.951078594E-1,4.956253690E-1
1.027358633E1,-2.253700234E-2,-7.583604194E-3,-5.233203769E-1,5.238603291E-1
1.028360633E1,-2.247095667E-2,-1.364256255E-2,-5.419132710E-1,5.425505107E-1
1.029362633E1,-2.236450091E-2,-7.838565856E-3,-5.623673201E-1,5.628664288E-1
1.030364733E1,-2.320472896E-2,-4.570068326E-3,-5.792056918E-1,5.796883459E-1
1.031366733E1,-2.518622205E-2,-4.305218346E-3,-5.986701250E-1,5.992151527E-1
1.032368733E1,-2.418646961E-2,-2.120893681E-3,-6.176803112E-1,6.181573023E-1
1.033370733E1,-2.649339288E-2,-6.619273685E-3,-6.421551704E-1,6.427355425E-1
1.034372833E1,-2.342942730E-2,-5.049074069E-3,-6.565948129E-1,6.570320993E-1
1.035374833E1,-2.484402247E-2,-4.941623192E-3,-6.703165770E-1,6.707950197E-1
1.036376833E1,-2.472231723E-2,-5.214064848E-3,-6.759899259E-1,6.764619422E-1
1.037378833E1,-2.493300661E-2,-6.181868259E-3,-6.886045337E-1,6.890835030E-1
1.038380933E1,-2.566271275E-2,-5.276393611E-3,-7.023640275E-1,7.028525039E-1
1.039382933E1,-2.638394013E-2,-3.018680029E-3,-7.150506973E-1,7.155436566E-1
1.040384933E1,-3.015444055E-2,-5.838967860E-3,-7.219157815E-1,7.225688752E-1
1.041386933E1,-2.881288342E-2,-2.460701857E-3,-7.254070044E-1,7.259831673E-1
1.042389033E1,-3.004193120E-2,-4.119052086E-3,-7.245976329E-1,7.252318345E-1
1.043391033E1,-2.743087336E-2,-4.949856550E-3,-7.298741937E-1,7.304062517E-1
1.044393033E1,-2.923223749E-2,-4.623885266E-3,-7.350955606E-1,7.356910949E-1
1.045395033E1,-2.999543771E-2,-5.185591057E-3,-7.411950827E-1,7.418199021E-1
1.046397133E1,-2.964203805E-2,-4.851897247E-3,-7.384648323E-1,7.390754359E-1
1.047399133E1,-2.828767523E-2,-6.535592489E-3,-7.339597344E-1,7.345337285E-1
1.048401133E1,-2.760164440E-2,-3.609311534E-3,-7.293745875E-1,7.299055876E-1
1.049403133E1,-2.901995368E-2,-6.351535209E-3,-7.264068723E-1,7.270140602E-1
1.050405233E1,-2.638315968E-2,-3.658013651E-3,-7.208755016E-1,7.213674106E-1
1.051407233E1,-2.774774283E-2,-7.843528874E-3,-7.137981653E-1,7.143803462E-1
1.052409233E1,-2.730778977E-2,-5.219516344E-3,-7.085488439E-1,7.090940860E-1
1.053411233E1,-2.793637663E-2,-1.123971073E-3,-6.947077513E-1,6.952701375E-1
1.054413333E1,-2.740720659E-2,-4.505120218E-3,-6.843967438E-1,6.849601112E-1
1.055415333E1,-2.420824394E-2,-2.183188917E-3,-6.647782922E-1,6.652225065E-1
1.056417333E1,-2.463062108E-2,-3.662841162E-3,-6.529602408E-1,6.534348935E-1
1.057419333E1,-2.542805485E-2,-1.995634753E-3,-6.410266161E-1,6.415338581E-1
1.058421433E1,-2.687281929E-2,-5.697695073E-3,-6.270426512E-1,6.276440859E-1
1.059423433E1,-2.240152657E-2,-3.692323575E-3,-6.077938676E-1,6.082177629E-1
1.060425433E1,-2.299860865E-2,-2.393233823E-3,-5.844001174E-1,5.848573850E-1
1.061427433E1,-1.869459264E-2,-3.108428326E-3,-5.644862056E-1,5.648042372E-1
1.062429533E1,-1.757659763E-2,-3.991798963E-3,-5.439106226E-1,5.442091846E-1
1.063431533E1,-1.779136062E-2,-4.159254022E-3,-5.265285373E-1,5.268454541E-1
1.064433533E1,-1.991629601E-2,-7.550523616E-3,-5.023323894E-1,5.027837494E-1
1.065435533E1,-1.883793250E-2,-7.776531857E-4,-4.778863788E-1,4.782581557E-1
1.066437633E1,-1.839371771E-2,-3.422970884E-3,-4.534332454E-1,4.538190759E-1
1.067439633E1,-1.558862813E-2,-1.844423357E-3,-4.235775769E-1,4.238683414E-1
1.068441633E1,-1.585521176E-2,-2.806090750E-3,-3.974932432E-1,3.978192307E-1
1.069443633E1,-1.510078833E-2,-1.328092534E-3,-3.727782667E-1,3.730863623E-1
1.070445733E1,-1.352499612E-2,2.780598588E-4,-3.464161456E-1,3.466801822E-1
1.071447733E1,-1.426640060E-2,6.707208231E-4,-3.135699928E-1,3.138950787E-1
1.072449733E1,-9.170708247E-3,6.054734113E-4,-2.840688229E-1,2.842174601E-1
1.073451733E1,-1.268188097E-2,-4.639912862E-3,-2.527812719E-1,2.531417199E-1
1.074453833E1,-6.964607164E-3,1.292869449E-2,-2.231450826E-1,2.236277818E-1
1.075455833E1,-9.625123814E-3,-2.059816848E-3,-1.941521764E-1,1.944015263E-1
1.076457833E1,-6.209352985E-3,2.060006373E-4,-1.633473933E-1,1.634654991E-1
1.077459833E1,1.092981547E-4,1.431391295E-2,-1.318944693E-1,1.326689529E-1
1.078461933E1,-3.870530054E-3,-8.343196474E-3,-9.469277412E-2,9.513838027E-2
1.079463933E1,8.094427176E-4,1.739971712E-2,-6.221499667E-2,6.460736153E-2
1.080465933E1,-3.971730359E-3,2.618108410E-3,-2.991750464E-2,3.029333619E-2
1.081467933E1,2.699624747E-4,4.219860770E-3,1.044819248E-3,4.355657461E-3
1.082470033E1,3.341652919E-3,1.983956620E-2,3.287066147E-2,3.853901162E-2
1.083472033E1,-9.047075175E-3,-2.489913069E-2,5.370647088E-2,5.988490037E-2
1.084474033E1,5.185389891E-3,2.587137185E-2,7.742777467E-2,8.180022274E-2
1.085476033E1,3.034874331E-3,-1.202924270E-2,1.087776423E-1,1.094828233E-1
1.086478133E1,1.258546021E-3,-2.678351477E-3,1.483511478E-1,1.483806610E-1
1.087480133E1,1.597215049E-2,1.706442609E-2,1.854110509E-1,1.868784686E-1
1.088482133E1,1.622772310E-3,-1.702829637E-2,2.144514918E-1,2.151326071E-1
1.089484133E1,1.564295217E-2,1.542257518E-2,2.377562523E-1,2.387689119E-1
1.090486233E1,6.757581607E-3,-4.373500124E-3,2.558175325E-1,2.559441392E-1
1.091488233E1,1.507804822E-2,6.519665476E-4,2.816472650E-1,2.820513330E-1
1.092490233E1,1.101726014E-2,5.553514697E-3,3.148819208E-1,3.151235402E-1
1.093492233E1,1.572996005E-2,-4.607138690E-4,3.530036807E-1,3.533542733E-1
1.094494333E1,1.764636859E-2,-2.069144975E-4,3.805125356E-1,3.809215495E-1
1.095496333E1,1.647014543E-2,5.880738609E-4,4.009806514E-1,4.013191925E-1
1.096498333E1,1.502085291E-2,-4.310544580E-3,4.192906916E-1,4.195818048E-1
1.097500333E1,2.035265602E-2,1.376692555E-3,4.379282296E-1,4.384030795E-1
1.098502433E1,1.475868560E-2,1.229112502E-2,4.550435543E-1,4.554487094E-1
1.099504433E1,2.613957971E-2,2.222180739E-2,4.753853083E-1,4.766217344E-1
1.100506433E1,9.919598699E-3,-2.264739759E-2,5.011036992E-1,5.017132851E-1
1.101508433E1,2.756564319E-2,3.394655138E-2,5.284307599E-1,5.302370235E-1
1.102510533E1,1.690128073E-2,-1.439136220E-3,5.475972295E-1,5.478598818E-1
1.103512533E1,1.861265674E-2,-8.494305424E-3,5.647374988E-1,5.651079779E-1
1.104514533E1,2.468439937E-2,2.259490266E-2,5.799673200E-1,5.809319594E-1
1.105516533E1,1.322544273E-2,-7.386994548E-3,5.948442221E-1,5.950370817E-1
1.106518633E1,2.569303103E-2,8.316601627E-3,6.080058813E-1,6.086053314E-1
1.107520633E1,2.188551053E-2,6.897935644E-3,6.174827218E-1,6.179089486E-1
1.108522587E1,2.386583574E-2,4.443299957E-3,6.294856071E-1,6.299535305E-1
1.109524587E1,2.654903196E-2,6.649751216E-3,6.423995495E-1,6.429823104E-1
1.110526587E1,2.342647687E-2,5.923917051E-4,6.564024687E-1,6.568206389E-1
1.111528687E1,3.164822608E-2,1.157804206E-2,6.642711759E-1,6.651254441E-1
1.112530687E1,2.124565467E-2,-7.783671841E-3,6.753222346E-1,6.757011795E-1
1.113532687E1,3.234882653E-2,1.779732294E-2,6.772994995E-1,6.783050960E-1
1.114534687E1,2.157713845E-2,-4.364438355E-3,6.817712188E-1,6.821265396E-1
1.115536787E1,3.212617338E-2,1.009130105E-2,6.846299171E-1,6.854575471E-1
1.116538787E1,2.791545168E-2,4.782821983E-3,6.858395338E-1,6.864240773E-1
1.117540787E1,2.775958180E-2,-1.243305160E-3,6.899066567E-1,6.904660276E-1
1.118542787E1,2.851698548E-2,6.927539594E-3,6.903468966E-1,6.909703662E-1
1.119544887E1,2.852342650E-2,2.313732635E-3,6.886614561E-1,6.892557873E-1
1.120546887E1,2.763899043E-2,3.843985032E-3,6.816421747E-1,6.822131224E-1
1.121548887E1,2.570028603E-2,8.188061416E-3,6.736807227E-1,6.742204871E-1
1.122550887E1,2.322674170E-2,-1.074412139E-3,6.690670848E-1,6.694709851E-1
1.123552987E1,2.509696595E-2,8.161417209E-3,6.625119448E-1,6.630373620E-1
1.124554987E1,2.324020863E-2,2.051859628E-3,6.568679214E-1,6.572821187E-1
1.125556987E1,2.520918474E-2,6.990266498E-3,6.489146948E-1,6.494417972E-1
1.126558987E1,2.401342615E-2,6.795323454E-3,6.373445988E-1,6.378330178E-1
1.127561087E1,2.431315370E-2,1.468845992E-3,6.204748154E-1,6.209527224E-1
1.128563087E1,2.320874110E-2,6.959485356E-3,6.058654785E-1,6.063497820E-1
1.129565087E1,2.405301109E-2,2.686296823E-3,5.937227011E-1,5.942157935E-1
1.130567087E1,2.128225937E-2,6.527070655E-4,5.775263906E-1,5.779187593E-1
1.131569188E1,2.640464529E-2,9.804417379E-3,5.663459897E-1,5.670459522E-1
1.132571187E1,1.696000993E-2,-4.719664343E-3,5.494660735E-1,5.497480178E-1
1.133573187E1,2.720061690E-2,1.128095482E-2,5.281466246E-1,5.289669087E-1
1.134575187E1,1.848728582E-2,-1.777266152E-5,5.059912801E-1,5.063289006E-1
1.135577288E1,2.260138094E-2,6.692042574E-3,4.859962165E-1,4.865674962E-1
1.136579287E1,1.924526505E-2,1.284154132E-4,4.679663479E-1,4.683619322E-1
1.137581287E1,1.847899891E-2,1.549486304E-3,4.448831975E-1,4.452695069E-1
1.138583287E1,1.536629628E-2,1.949226717E-3,4.190643728E-1,4.193505348E-1
1.139585388E1,1.494726446E-2,3.793382086E-3,3.938420713E-1,3.941438666E-1
1.140587388E1,1.102629211E-2,-1.648787875E-3,3.670626581E-1,3.672319329E-1
1.141589387E1,1.569591463E-2,3.267293330E-3,3.397593796E-1,3.401374325E-1
1.142591387E1,1.160716265E-2,-1.205219422E-3,3.154204786E-1,3.156362734E-1
1.143593488E1,1.311016083E-2,4.361886531E-3,2.895703018E-1,2.898997448E-1
1.144595488E1,7.139619440E-3,-5.258130841E-4,2.619804740E-1,2.620782696E-1
1.145597487E1,1.045492478E-2,3.755194135E-3,2.341192067E-1,2.343826143E-1
1.146599487E1,6.908926181E-3,-4.382194020E-4,2.072740197E-1,2.073895960E-1
1.147601587E1,7.222615182E-3,3.057966474E-3,1.787365973E-1,1.789086039E-1
1.148603588E1,6.690781564E-3,-1.755963545E-3,1.483794898E-1,1.485406441E-1
1.149605588E1,6.896123290E-3,-3.632293083E-4,1.186420768E-1,1.188428830E-1
1.150607587E1,5.322728306E-3,-2.646623412E-3,8.900375664E-2,8.920204453E-2
1.151609687E1,4.777114373E-3,-8.256826550E-5,5.948519334E-2,5.967676153E-2
1.152611688E1,3.164570313E-3,-2.046382986E-3,3.103197739E-2,3.125997135E-2
1.153613688E1,1.532536931E-3,4.165889695E-4,2.505791606E-3,2.966682893E-3
1.154615687E1,2.287010197E-3,-1.096885419E-3,-2.771176584E-2,2.782760391E-2
1.155617787E1,-7.083397359E-4,-2.763792640E-3,-5.822637677E-2,5.829623699E-2
1.156619787E1,-3.089472651E-3,-2.762194490E-3,-8.517490327E-2,8.527566304E-2
1.157621788E1,-3.570737317E-3,-4.791268148E-3,-1.161267310E-1,1.162803684E-1
1.158623788E1,-6.989437155E-3,-2.570724580E-3,-1.433530301E-1,1.435463413E-1
1.159625887E1,-8.028993383E-3,-1.537730917E-3,-1.735060215E-1,1.736984998E-1
1.160627887E1,-1.054807752E-2,-5.881080870E-3,-2.026109099E-1,2.029705148E-1
1.161629888E1,-1.079340279E-2,-1.422334928E-3,-2.299245596E-1,2.301821533E-1
1.162631888E1,-1.183363236E-2,-5.025325809E-3,-2.527118921E-1,2.530387108E-1
1.163633987E1,-1.218909305E-2,-4.359678365E-3,-2.793723643E-1,2.796721272E-1
1.164635987E1,-1.399684791E-2,-4.186839331E-3,-3.085747361E-1,3.089203929E-1
1.165637987E1,-1.407897659E-2,-4.499895498E-3,-3.332672417E-1,3.335948456E-1
1.166639988E1,-1.442385465E-2,-4.100954160E-3,-3.593547642E-1,3.596675020E-1
1.167642087E1,-1.413741149E-2,-5.964310840E-3,-3.822502792E-1,3.825581202E-1
1.168644087E1,-1.569349505E-2,-5.115827546E-3,-4.047390819E-1,4.050755261E-1
1.169646087E1,-1.587192342E-2,-6.747477688E-3,-4.292320311E-1,4.295783781E-1
1.170648088E1,-1.524421852E-2,-6.071034819E-3,-4.497050941E-1,4.500043503E-1
1.171650088E1,-1.761894301E-2,-7.218218409E-3,-4.698651433E-1,4.702507658E-1
1.172652187E1,-1.867914759E-2,-8.415842429E-3,-4.886678755E-1,4.890971576E-1
1.173654187E1,-1.816542260E-2,-7.926353253E-3,-5.115182996E-1,5.119021200E-1
1.174656187E1,-2.121314406E-2,-1.178074628E-2,-5.260991454E-1,5.266584228E-1
1.175658188E1,-1.857601851E-2,-7.265865803E-3,-5.343425274E-1,5.347146883E-1
1.176660287E1,-2.312283590E-2,-5.255179480E-3,-5.504094362E-1,5.509199851E-1
1.177662287E1,-2.255317010E-2,-7.433206309E-3,-5.634933710E-1,5.639935081E-1
1.178664287E1,-2.177126519E-2,-3.193187527E-3,-5.812494159E-1,5.816657699E-1
1.179666288E1,-2.379490808E-2,-6.582556758E-3,-5.941826701E-1,5.946953617E-1
1.180668387E1,-2.360289171E-2,-2.031480893E-3,-6.065722704E-1,6.070347129E-1
1.181670387E1,-2.265492082E-2,-2.804741031E-3,-6.074224710E-1,6.078512732E-1
1.182672387E1,-2.479663491E-2,-4.729939625E-3,-6.152641773E-1,6.157818228E-1
1.183674387E1,-2.456169575E-2,-4.371962510E-3,-6.254039407E-1,6.259013341E-1
1.184676487E1,-2.516410500E-2,-5.258794874E-3,-6.331699491E-1,6.336916218E-1
1.185678487E1,-2.122765034E-2,-8.141849190E-3,-6.401544213E-1,6.405580270E-1
1.186680487E1,-2.449481934E-2,-4.018743522E-3,-6.428860426E-1,6.433650676E-1
1.187682487E1,-2.675590478E-2,-4.941286054E-3,-6.442803144E-1,6.448545715E-1
1.188684587E1,-2.272174694E-2,-3.867233172E-3,-6.468990445E-1,6.473095141E-1
1.189686587E1,-2.587786131E-2,-5.698689725E-3,-6.428113580E-1,6.433572730E-1
1.190688587E1,-2.292380482E-2,-3.445194568E-3,-6.433382630E-1,6.437557696E-1
1.191690587E1,-2.421916276E-2,-2.469212515E-3,-6.457523704E-1,6.462111023E-1
1.192692687E1,-2.638804168E-2,-4.148867913E-3,-6.404497623E-1,6.410065834E-1
1.193694687E1,-2.578667179E-2,-4.619969986E-3,-6.331536770E-1,6.336954120E-1
1.194696687E1,-2.439836413E-2,-4.471898079E-3,-6.258428097E-1,6.263341764E-1
1.195698687E1,-2.305747569E-2,-3.731376957E-3,-6.185495257E-1,6.189903765E-1
1.196700787E1,-2.527722344E-2,-6.589214783E-3,-6.152677536E-1,6.158220233E-1
1.197702787E1,-2.216260135E-2,-2.240856644E-3,-6.066735387E-1,6.070823543E-1
1.198704787E1,-2.475918271E-2,-2.087991219E-3,-5.914099216E-1,5.919316449E-1
1.199706787E1,-2.344558015E-2,-5.269017071E-3,-5.786548853E-1,5.791536360E-1
1.200708887E1,-2.170520462E-2,-1.252969494E-3,-5.638293624E-1,5.642483812E-1
1.201710887E1,-2.026374266E-2,-3.013726324E-3,-5.492119193E-1,5.495938811E-1
1.202712887E1,-2.036308125E-2,-3.061396535E-3,-5.347120762E-1,5.351084298E-1
1.203714887E1,-1.662119851E-2,-2.483871300E-3,-5.230607986E-1,5.233307109E-1
1.204716987E1,-1.717673242E-2,-4.580844194E-3,-5.051110983E-1,5.054238280E-1
1.205718987E1,-1.995176263E-2,-2.671728609E-3,-4.865303338E-1,4.869465850E-1
1.206720987E1,-1.658099890E-2,-2.959616249E-3,-4.633049071E-1,4.636109638E-1
1.207722987E1,-1.486922801E-2,-2.679126803E-3,-4.460982978E-1,4.463540781E-1
1.208725100E1,-1.515791565E-2,-3.945460077E-3,-4.264622927E-1,4.267498285E-1
1.209727100E1,-1.512574125E-2,-3.804722801E-4,-4.041370153E-1,4.044201528E-1
1.210729100E1,-1.595904306E-2,-4.239392467E-3,-3.800585568E-1,3.804171002E-1
1.211731100E1,-1.320989151E-2,-8.517960086E-4,-3.597709835E-1,3.600144266E-1
1.212733200E1,-1.230228785E-2,-1.617709640E-4,-3.360123932E-1,3.362375661E-1
1.213735200E1,-1.191453077E-2,-2.477190457E-3,-3.095135987E-1,3.097527406E-1
1.214737200E1,-1.319231652E-2,-1.905675977E-3,-2.842247486E-1,2.845371268E-1
1.215739200E1,-1.182078756E-2,-2.393567003E-3,-2.606387138E-1,2.609176102E-1
1.216741300E1,-1.213792246E-2,-2.253565472E-3,-2.356167287E-1,2.359399300E-1
1.217743300E1,-9.597304277E-3,-1.456033904E-3,-2.106380612E-1,2.108616160E-1
1.218745300E1,-5.676599219E-3,-1.173738856E-3,-1.774204522E-1,1.775151214E-1
1.219747300E1,-6.230844185E-3,-1.899562078E-3,-1.549842209E-1,1.551210510E-1
1.220749400E1,-4.965842701E-3,-1.551916357E-4,-1.272668391E-1,1.273637783E-1
1.221751400E1,-3.296932206E-3,-6.015133113E-5,-1.001551896E-1,1.002094576E-1
1.222753400E1,-2.544322982E-3,2.828845754E-3,-7.258187979E-2,7.268153288E-2
1.223755400E1,8.042887785E-4,-4.424320068E-4,-4.421985894E-2,4.422938561E-2
1.224757400E1,2.740537748E-4,3.778944723E-3,-1.367047150E-2,1.418581403E-2
1.225759500E1,2.192864195E-4,1.516624936E-3,1.256310940E-2,1.265622201E-2
1.226761500E1,2.660606056E-3,3.613597946E-3,4.306935146E-2,4.330249358E-2
1.227763500E1,3.205755260E-3,3.452210221E-3,6.933318079E-2,6.949305419E-2
1.228765500E1,4.516297020E-3,5.149709061E-3,9.896777570E-2,9.920452142E-2
1.229767600E1,4.321164452E-3,6.973636337E-3,1.244058013E-1,1.246760100E-1
1.230769600E1,5.316121504E-3,6.691607647E-3,1.512011886E-1,1.514425244E-1
1.231771600E1,5.198473111E-3,1.313377987E-3,1.795798987E-1,1.796599263E-1
1.232773600E1,8.604123257E-3,-5.644168705E-4,2.019446045E-1,2.021286046E-1
1.233775700E1,6.595643703E-3,3.066996578E-3,2.282651961E-1,2.283810604E-1
1.234777700E1,7.979688235E-3,2.154331421E-3,2.529314160E-1,2.530664296E-1
1.235779700E1,1.105138008E-2,2.812600462E-3,2.800030708E-1,2.802351930E-1
1.236781700E1,8.355994709E-3,-5.535758100E-5,3.028993309E-1,3.030145712E-1
1.237783800E1,1.484147925E-2,2.696543932E-3,3.257076144E-1,3.260567296E-1
1.238785800E1,1.393946633E-2,1.394524588E-3,3.504489064E-1,3.507287976E-1
1.239787800E1,1.457052864E-2,3.170980606E-3,3.710607886E-1,3.713602890E-1
1.240789800E1,1.553938724E-2,2.505456563E-3,3.926798105E-1,3.929951443E-1
1.241791900E1,1.743879914E-2,4.370317794E-3,4.195243418E-1,4.199093769E-1
1.242793900E1,2.216697484E-2,2.856034227E-2,4.197147489E-1,4.212689620E-1
1.243795900E1,1.420484483E-2,-2.372962236E-2,4.305456579E-1,4.314330030E-1
1.244797900E1,2.001479641E-2,1.712167077E-2,4.491182864E-1,4.498899630E-1
1.245800000E1,2.104381844E-2,1.267660595E-2,4.709270597E-1,4.715674227E-1
1.246802000E1,9.290489368E-3,-1.948798820E-2,4.884094000E-1,4.888863231E-1
1.247804000E1,2.876730822E-2,1.901119761E-2,5.058513880E-1,5.070252562E-1
1.248806000E1,1.001359429E-2,-1.427272428E-2,5.241180062E-1,5.244079206E-1
1.249808100E1,2.451122925E-2,1.230522431E-2,5.364323258E-1,5.371329995E-1
1.250810100E1,1.473156922E-2,-6.607213989E-3,5.446545482E-1,5.448937981E-1
1.251812100E1,2.464167774E-2,1.108558103E-2,5.552331805E-1,5.558902654E-1
1.252814100E1,1.724261791E-2,4.952549934E-4,5.623837709E-1,5.626482551E-1
1.253816200E1,2.318148315E-2,9.583931416E-3,5.702265501E-1,5.707780228E-1
1.254818200E1,2.145602182E-2,8.645699359E-3,5.771667361E-1,5.776301155E-1
1.255820200E1,2.322141267E-2,3.525824286E-5,5.857562423E-1,5.862163514E-1
1.256822200E1,2.747394890E-2,8.855913766E-3,5.963692069E-1,5.970673965E-1
1.257824300E1,2.312076464E-2,-2.051153686E-3,6.027426720E-1,6.031894442E-1
1.258826300E1,2.128398046E-2,1.747046830E-3,5.960269570E-1,5.964094177E-1
1.259828300E1,2.545786090E-2,4.841338843E-3,5.977501869E-1,5.983116472E-1
1.260830300E1,2.426343225E-2,-2.138806507E-3,5.960875750E-1,5.965850196E-1
1.261832400E1,2.688589320E-2,5.138464272E-3,5.970804691E-1,5.977075721E-1
1.262834400E1,2.216091380E-2,5.186786875E-4,6.003425717E-1,6.007516780E-1
1.263836400E1,2.540442534E-2,4.607548006E-3,6.008768678E-1,6.014313132E-1
1.264838400E1,2.185949124E-2,4.999032710E-3,5.933246613E-1,5.937482474E-1
1.265840500E1,2.218770236E-2,2.880695974E-3,5.848678946E-1,5.852956917E-1
1.266842500E1,2.280715294E-2,8.351627737E-3,5.775351524E-1,5.780456454E-1
1.267844500E1,2.096004784E-2,1.722510671E-3,5.684533119E-1,5.688422088E-1
1.268846500E1,2.194728330E-2,6.359340623E-3,5.643232465E-1,5.647856682E-1
1.269848600E1,2.225871012E-2,3.828676185E-3,5.580953956E-1,5.585522173E-1
1.270850600E1,2.340413630E-2,3.097372130E-3,5.455574989E-1,5.460680653E-1
1.271852600E1,2.069051936E-2,4.325044341E-3,5.334242582E-1,5.338429009E-1
1.272854600E1,2.098160237E-2,1.829928602E-3,5.165659189E-1,5.169950917E-1
1.273856700E1,1.965530217E-2,5.285263993E-3,5.025698543E-1,5.029818320E-1
1.274858700E1,1.824888587E-2,-1.682317816E-5,4.902465940E-1,4.905861239E-1
1.275860700E1,1.989336312E-2,4.743326455E-3,4.799898267E-1,4.804253103E-1
1.276862700E1,1.425704919E-2,7.477859035E-4,4.620209634E-1,4.622414881E-1
1.277864800E1,1.878331974E-2,7.754433900E-4,4.409852326E-1,4.413857607E-1
1.278866800E1,1.916148886E-2,2.987731248E-3,4.238685668E-1,4.243119738E-1
1.279868800E1,1.921004802E-2,3.660786897E-4,4.041488767E-1,4.046053317E-1
1.280870800E1,1.730215922E-2,2.387417946E-3,3.873919845E-1,3.877855259E-1
1.281872900E1,1.615059748E-2,2.263545524E-3,3.686290383E-1,3.689896114E-1
1.282874900E1,1.550557837E-2,2.314944519E-3,3.467724621E-1,3.471266662E-1
1.283876900E1,1.513374038E-2,1.996874344E-3,3.229795694E-1,3.233400994E-1
1.284878900E1,1.528340951E-2,-1.205044333E-3,2.971668839E-1,2.975620803E-1
1.285881000E1,9.364437312E-3,3.189997748E-3,2.769689858E-1,2.771456077E-1
1.286883000E1,6.399273872E-3,2.052561613E-3,2.533608675E-1,2.534499811E-1
1.287885000E1,8.475888520E-3,6.806849269E-4,2.301973403E-1,2.303543346E-1
1.288887000E1,7.047635503E-3,2.482313430E-3,2.064832300E-1,2.066183809E-1
1.289889100E1,6.950456649E-3,-1.694869483E-3,1.816877276E-1,1.818285230E-1
1.290891100E1,6.417292170E-3,9.906622581E-4,1.551581174E-1,1.552939292E-1
1.291893100E1,3.937432542E-3,8.123575244E-4,1.279881597E-1,1.280512878E-1
1.292895100E1,5.233326927E-3,-2.797557274E-3,1.042719036E-1,1.044406239E-1
1.293897200E1,3.323999699E-3,2.123293001E-3,7.968409359E-2,7.978165277E-2
1.294899200E1,2.470722888E-3,-4.799470771E-4,5.557528883E-2,5.563225278E-2
1.295901200E1,-7.844278589E-4,1.826362219E-3,2.463179454E-2,2.471186412E-2
1.296903200E1,5.543427542E-4,-7.224269211E-6,1.477472601E-3,1.578060000E-3
1.297905200E1,5.235266872E-4,-1.125890994E-3,-2.732632868E-2,2.735452339E-2
1.298907300E1,2.058572602E-3,5.415140186E-4,-5.347244442E-2,5.351479487E-2
1.299909300E1,-1.166032627E-3,4.676894750E-4,-7.737719268E-2,7.738739117E-2
1.300911300E1,-3.236906603E-3,-1.707314281E-3,-1.015877202E-1,1.016536147E-1
1.301913300E1,-3.635327332E-3,-3.696663072E-3,-1.275579333E-1,1.276632574E-1
1.302915400E1,-6.025780924E-3,1.045893994E-3,-1.517524868E-1,1.518756767E-1
1.303917400E1,-7.622563280E-3,-3.424036317E-3,-1.775755584E-1,1.777720632E-1
1.304919400E1,-9.467068128E-3,-8.336710744E-5,-1.995306611E-1,1.997551427E-1
1.305921400E1,-8.463026024E-3,-3.030675929E-3,-2.261585146E-1,2.263370971E-1
1.306923500E1,-1.131899934E-2,-4.310591146E-3,-2.451135665E-1,2.454126350E-1
1.307925500E1,-1.342153363E-2,-4.473831039E-3,-2.693520188E-1,2.697233078E-1
1.308927546E1,-1.542023756E-2,-3.846922889E-3,-2.928376496E-1,2.932685997E-1
1.309929546E1,-1.334883086E-2,-2.542506903E-3,-3.143469393E-1,3.146405153E-1
1.310931646E1,-1.640320942E-2,-3.869293723E-3,-3.321251273E-1,3.325524574E-1
1.311933646E1,-1.227963995E-2,-4.828394856E-3,-3.511301875E-1,3.513780180E-1
1.312935646E1,-1.345303003E-2,-5.951981992E-3,-3.729396164E-1,3.732296446E-1
1.313937646E1,-1.679342613E-2,-7.337551564E-3,-3.913568258E-1,3.917856862E-1
1.314939746E1,-1.514546108E-2,-5.310352892E-3,-4.105528891E-1,4.108664742E-1
1.315941746E1,-1.534063835E-2,-6.225648336E-3,-4.297735095E-1,4.300922731E-1
1.316943746E1,-1.581947505E-2,-6.360137835E-3,-4.426429570E-1,4.429712118E-1
1.317945746E1,-1.738744974E-2,-7.834717631E-3,-4.579905570E-1,4.583874523E-1
1.318947846E1,-1.759224758E-2,-7.511941716E-3,-4.721734822E-1,4.725608043E-1
1.319949846E1,-1.824849844E-2,-7.142412476E-3,-4.858388305E-1,4.862338850E-1
1.320951846E1,-1.973320916E-2,-9.360292926E-3,-4.996547699E-1,5.001318863E-1
1.321953846E1,-2.043758892E-2,-9.818946943E-3,-5.107663870E-1,5.112694092E-1
1.322955946E1,-2.105038241E-2,-2.430273686E-3,-5.159392953E-1,5.163742647E-1
1.323957946E1,-2.098165452E-2,-9.338604286E-3,-5.200744271E-1,5.205812608E-1
1.324959946E1,-2.229006588E-2,-1.655384665E-3,-5.294122696E-1,5.298838916E-1
1.325961946E1,-2.241966873E-2,-3.768035909E-3,-5.403686762E-1,5.408466935E-1
1.326964046E1,-2.181433141E-2,-4.944354296E-3,-5.488231778E-1,5.492787928E-1
1.327966046E1,-2.286826819E-2,-5.700471345E-3,-5.534904599E-1,5.539920056E-1
1.328968046E1,-2.209595218E-2,-4.751054570E-3,-5.550508499E-1,5.555108006E-1
1.329970046E1,-2.074891329E-2,-7.271820214E-4,-5.577450395E-1,5.581313244E-1
1.330972146E1,-2.130870894E-2,-2.241988201E-3,-5.581908822E-1,5.586019590E-1
1.331974146E1,-2.032489702E-2,-3.344427329E-3,-5.598158240E-1,5.601946478E-1
1.332976146E1,-2.256381698E-2,-1.421625260E-3,-5.646145940E-1,5.650670638E-1
1.333978146E1,-1.950559393E-2,-5.388588645E-3,-5.640333891E-1,5.643962873E-1
1.334980246E1,-2.155915648E-2,-2.814377425E-3,-5.608556867E-1,5.612769541E-1
1.335982246E1,-2.218153328E-2,-1.674073283E-3,-5.528543591E-1,5.533016947E-1
1.336984246E1,-2.094236389E-2,-4.521791358E-3,-5.476303101E-1,5.480492548E-1
1.337986246E1,-1.974503696E-2,-4.475730471E-3,-5.434012413E-1,5.437782707E-1
1.338988346E1,-2.260021307E-2,-3.764932510E-3,-5.389833450E-1,5.394701016E-1
1.339990346E1,-2.268331870E-2,-5.205610767E-3,-5.337611437E-1,5.342682752E-1
1.340992346E1,-1.958952472E-2,-4.217310809E-3,-5.249274373E-1,5.253097654E-1
1.341994346E1,-2.062931657E-2,-1.893204870E-3,-5.118896961E-1,5.123087096E-1
1.342996446E1,-2.082426101E-2,-7.280721329E-4,-5.007430315E-1,5.011763797E-1
1.343998446E1,-1.692072302E-2,-3.812058829E-3,-4.871786833E-1,4.874873456E-1
1.345000446E1,-1.624135301E-2,-4.562537652E-3,-4.814744592E-1,4.817699172E-1
1.346002446E1,-1.737698540E-2,-2.930576215E-3,-4.655919969E-1,4.659253754E-1
1.347004546E1,-1.537002902E-2,-1.796868397E-3,-4.524737895E-1,4.527383313E-1
1.348006546E1,-1.800332963E-2,-1.475412864E-3,-4.315905571E-1,4.319684082E-1
1.349008546E1,-1.584324054E-2,-1.152904239E-3,-4.135641456E-1,4.138691097E-1
1.350010546E1,-1.537671685E-2,-2.938310849E-3,-4.001339078E-1,4.004400345E-1
1.351012646E1,-1.455886103E-2,-1.606730511E-3,-3.846300542E-1,3.849088472E-1
1.352014646E1,-1.313637290E-2,-3.350533079E-3,-3.678845167E-1,3.681342255E-1
1.353016646E1,-1.301226858E-2,-2.165160142E-3,-3.467286229E-1,3.469794590E-1
1.354018646E1,-1.008146722E-2,3.069788218E-4,-3.290027678E-1,3.291573354E-1
1.355020746E1,-1.345489454E-2,8.952710778E-4,-3.073875010E-1,3.076831348E-1
1.356022746E1,-9.456741624E-3,-1.655429369E-3,-2.904044986E-1,2.905631484E-1
1.357024746E1,-9.351014160E-3,1.147736330E-4,-2.631316185E-1,2.632977465E-1
1.358026746E1,-1.135821082E-2,-2.506484510E-3,-2.425399572E-1,2.428187024E-1
1.359028746E1,-8.648443967E-3,-5.506589077E-4,-2.239510864E-1,2.241186916E-1
1.360030846E1,-9.129396640E-3,6.411450449E-4,-2.016138583E-1,2.018214677E-1
1.361032846E1,-7.475041784E-3,-1.449170057E-3,-1.762650907E-1,1.764294719E-1
1.362034846E1,-4.129077308E-3,-1.137925312E-3,-1.518233269E-1,1.518837278E-1
1.363036846E1,-4.598858766E-3,9.965983918E-4,-1.298168153E-1,1.299020717E-1
1.364038946E1,-7.354336791E-3,-2.207614249E-3,-1.050329059E-1,1.053132051E-1
1.365040946E1,-2.503921278E-3,-5.529923365E-4,-8.062024415E-2,8.066101405E-2
1.366042946E1,-8.112005889E-4,8.327563992E-4,-5.941342562E-2,5.942479848E-2
1.367044946E1,-1.329984516E-3,5.962676369E-4,-3.494510055E-2,3.497548350E-2
1.368047046E1,-1.582452096E-3,2.889249474E-3,-8.616557345E-3,9.224802309E-3
1.369049046E1,1.083372161E-3,-1.539587276E-3,1.548691466E-2,1.560091504E-2
1.370051046E1,5.161971785E-4,7.144417614E-4,4.002638534E-2,4.003608884E-2
1.371053046E1,9.188670665E-4,-4.472290166E-4,6.459005922E-2,6.459814301E-2
1.372055146E1,4.644786939E-3,1.965919975E-3,8.453465253E-2,8.468498312E-2
1.373057146E1,5.726562813E-3,1.928102924E-3,1.106813028E-1,1.108461181E-1
1.374059146E1,3.436868079E-3,1.641113078E-3,1.344649345E-1,1.345188608E-1
1.375061146E1,5.709876306E-3,9.558817837E-4,1.549544930E-1,1.550626045E-1
1.376063246E1,8.542261086E-3,3.022372490E-3,1.780815721E-1,1.783119493E-1
1.377065246E1,8.141721599E-3,4.627459683E-3,2.025554925E-1,2.027718633E-1
1.378067246E1,7.500211243E-3,2.956509124E-3,2.214133441E-1,2.215600665E-1
1.379069246E1,1.100466494E-2,2.295246348E-3,2.452222705E-1,2.454798011E-1
1.380071346E1,1.060548890E-2,1.533061615E-3,2.651595175E-1,2.653759530E-1
1.381073346E1,1.226943173E-2,2.627887065E-3,2.859436274E-1,2.862188023E-1
1.382075346E1,1.279426366E-2,1.334194792E-3,3.056568503E-1,3.059274153E-1
1.383077346E1,1.072978135E-2,9.483026806E-4,3.255280256E-1,3.257061912E-1
1.384079446E1,1.334272418E-2,3.120081266E-3,3.418814242E-1,3.421559168E-1
1.385081446E1,1.339305751E-2,4.103054293E-3,3.584409356E-1,3.587145291E-1
1.386083446E1,1.553946361E-2,-2.161264420E-4,3.815465271E-1,3.818628995E-1
1.387085446E1,1.719754934E-2,3.539193422E-2,3.880715370E-1,3.900613574E-1
1.388087546E1,1.859137043E-2,-5.522936117E-3,3.936473429E-1,3.941248184E-1
1.389089546E1,1.296837069E-2,2.959232079E-3,4.089543819E-1,4.091706517E-1
1.390091546E1,2.610224672E-2,3.087120689E-2,4.287446737E-1,4.306464373E-1
1.391093546E1,5.392974243E-3,-4.197316989E-2,4.501783252E-1,4.521629746E-1
1.392095646E1,2.505578101E-2,3.669040650E-2,4.659785926E-1,4.680919000E-1
1.393097646E1,1.426731609E-2,-1.073889434E-2,4.762165844E-1,4.765512726E-1
1.394099646E1,1.469201408E-2,-2.634621691E-3,4.833326042E-1,4.835630287E-1
1.395101646E1,2.348231152E-2,1.619632356E-2,4.805759788E-1,4.814218641E-1
1.396103746E1,1.371715777E-2,-1.159657724E-2,4.850559533E-1,4.853884206E-1
1.397105746E1,2.932674438E-2,2.518513985E-2,4.924795330E-1,4.939943720E-1
1.398107746E1,8.275474422E-3,-1.256748289E-2,5.041069388E-1,5.043314693E-1
1.399109746E1,3.182820603E-2,2.108741738E-2,5.191956162E-1,5.205975430E-1
1.400111846E1,1.486872323E-2,-4.955079406E-3,5.246391296E-1,5.248731733E-1
1.401113846E1,2.584094554E-2,6.238984875E-3,5.192316175E-1,5.199116771E-1
1.402115846E1,1.981309801E-2,5.187915172E-3,5.167793632E-1,5.171850573E-1
1.403117846E1,1.957927272E-2,-2.950705122E-3,5.139744878E-1,5.143557414E-1
1.404119946E1,1.897627302E-2,4.401461221E-3,5.182335973E-1,5.185995885E-1
1.405121946E1,2.070732787E-2,4.599067848E-3,5.250201821E-1,5.254485098E-1
1.406123946E1,2.031967975E-2,-5.402942188E-4,5.266731381E-1,5.270652481E-1
1.407125946E1,2.319030091E-2,5.959150381E-3,5.202893019E-1,5.208399554E-1
1.408128046E1,1.762802526E-2,3.384076525E-3,5.085581541E-1,5.088748327E-1
1.409130033E1,1.754440181E-2,4.276235588E-3,4.985577464E-1,4.988846748E-1
1.410132033E1,1.852190681E-2,5.806533620E-3,4.971445501E-1,4.975233467E-1
1.411134033E1,1.784945838E-2,-1.781219617E-4,4.972348511E-1,4.975551548E-1
1.412136033E1,2.079013735E-2,6.259178743E-3,4.928110242E-1,4.932890762E-1
1.413138133E1,1.709340513E-2,2.544335090E-3,4.817205667E-1,4.820304581E-1
1.414140133E1,1.760573313E-2,2.855368890E-3,4.657175243E-1,4.660589313E-1
1.415142133E1,1.519424096E-2,6.136117037E-3,4.528182447E-1,4.531146429E-1
1.416144133E1,1.463945769E-2,-3.427397460E-4,4.390630126E-1,4.393071366E-1
1.417146233E1,1.864059083E-2,3.551334376E-3,4.336120784E-1,4.340270938E-1
1.418148233E1,1.921466738E-2,1.327219303E-3,4.254292548E-1,4.258650206E-1
1.419150233E1,1.835313439E-2,3.729390679E-3,4.140990973E-1,4.145223857E-1
1.420152233E1,1.644296572E-2,3.954709973E-3,3.967373669E-1,3.970976570E-1
1.421154333E1,1.713032648E-2,-1.374009298E-3,3.756499290E-1,3.760428236E-1
1.422156333E1,1.531134173E-2,5.181177519E-3,3.584413826E-1,3.588056669E-1
1.423158333E1,1.050353609E-2,1.576056355E-3,3.450856209E-1,3.452490318E-1
1.424160333E1,1.293193176E-2,6.200274220E-4,3.330030143E-1,3.332545976E-1
1.425162433E1,1.485100575E-2,2.381442115E-3,3.153047264E-1,3.156632606E-1
1.426164433E1,1.255637966E-2,-5.313730799E-4,2.941601574E-1,2.944285028E-1
1.427166433E1,1.259845868E-2,4.033285193E-3,2.680449486E-1,2.683711665E-1
1.428168433E1,1.091460511E-2,4.063495435E-4,2.487871647E-1,2.490267998E-1
1.429170533E1,1.034069341E-2,5.108374171E-5,2.311668843E-1,2.313980574E-1
1.430172533E1,7.704820484E-3,3.028810723E-3,2.145976573E-1,2.147572874E-1
1.431174533E1,8.683798835E-3,-1.548097702E-3,1.937205940E-1,1.939213076E-1
1.432176533E1,6.149942987E-3,3.227435984E-3,1.716668159E-1,1.718072577E-1
1.433178633E1,2.941633109E-3,-1.063449075E-3,1.491007805E-1,1.491335873E-1
1.434180633E1,3.739875276E-3,2.324659377E-3,1.247146055E-1,1.247923216E-1
1.435182633E1,3.123870119E-4,1.061521936E-3,1.000955403E-1,1.001016563E-1
1.436184633E1,4.541690927E-3,6.108918460E-4,8.108529449E-2,8.121468542E-2
1.437186733E1,5.051377229E-4,-5.756155588E-5,6.016856059E-2,6.017070850E-2
1.438188733E1,-1.987526193E-4,1.914135995E-3,4.064831510E-2,4.069384400E-2
1.439190733E1,1.097940374E-3,1.532505034E-3,1.385957841E-2,1.398720695E-2
1.440192733E1,1.054954715E-3,-1.277602743E-3,-1.263735536E-2,1.274550701E-2
1.441194833E1,-7.088566199E-4,-2.219562652E-3,-3.266539425E-2,3.274838801E-2
1.442196833E1,-1.236429438E-3,1.124568633E-3,-5.393606052E-2,5.396194990E-2
1.443198833E1,-1.157865860E-3,-2.212638734E-3,-7.472975552E-2,7.477147039E-2
1.444200833E1,-4.678470083E-3,-1.967059681E-3,-9.660724550E-2,9.674046356E-2
1.445202933E1,-4.294442013E-3,-3.087984165E-3,-1.215301678E-1,1.216452200E-1
1.446204933E1,-5.501982756E-3,-2.341642976E-4,-1.433868110E-1,1.434925232E-1
1.447206933E1,-5.815968849E-3,-1.918613911E-3,-1.637389511E-1,1.638534427E-1
1.448208933E1,-8.751996793E-3,-2.288388088E-3,-1.833880991E-1,1.836110810E-1
1.449211033E1,-1.163966302E-2,-2.804508433E-3,-2.022739053E-1,2.026279343E-1
1.450213033E1,-8.323728107E-3,-2.507486148E-3,-2.177101970E-1,2.178836887E-1
1.451215033E1,-1.059300732E-2,-5.689697340E-3,-2.468755394E-1,2.471681946E-1
1.452217033E1,-1.317492500E-2,-6.287205033E-3,-2.619138062E-1,2.623203185E-1
1.453219133E1,-1.119087078E-2,-5.183057860E-3,-2.820427716E-1,2.823122822E-1
1.454221133E1,-1.285690069E-2,-5.664976314E-3,-2.966399789E-1,2.969725053E-1
1.455223133E1,-1.215782203E-2,-6.746485829E-3,-3.076303303E-1,3.079443908E-1
1.456225133E1,-1.163087506E-2,-4.694021307E-3,-3.260137141E-1,3.262548894E-1
1.457227233E1,-1.220132317E-2,-5.443701055E-3,-3.416770995E-1,3.419382203E-1
1.458229233E1,-1.354435366E-2,-2.891526325E-3,-3.619664609E-1,3.622313201E-1
1.459231233E1,-1.291105431E-2,-5.301953293E-3,-3.742902577E-1,3.745504012E-1
1.460233233E1,-1.439722441E-2,-4.255177919E-3,-3.887376785E-1,3.890274660E-1
1.461235333E1,-1.339188032E-2,-5.723379087E-3,-3.995602429E-1,3.998255710E-1
1.462237333E1,-1.750973612E-2,-4.403911531E-3,-4.121062756E-1,4.125015971E-1
1.463239333E1,-1.606790349E-2,-7.512619719E-3,-4.270990789E-1,4.274672387E-1
1.464241333E1,-1.837790012E-2,-6.832505576E-3,-4.344135523E-1,4.348557977E-1
1.465243433E1,-1.757522300E-2,-7.213603705E-3,-4.475690424E-1,4.479720664E-1
1.466245433E1,-1.828207821E-2,-5.544524174E-3,-4.561289847E-1,4.565288893E-1
1.467247433E1,-1.897956058E-2,-2.786288504E-3,-4.596779048E-1,4.600779970E-1
1.468249433E1,-1.606715098E-2,2.250611782E-3,-4.633415043E-1,4.636254612E-1
1.469251433E1,-2.079932019E-2,-5.606512539E-3,-4.621851444E-1,4.626868838E-1
1.470253533E1,-1.648645662E-2,2.435654635E-3,-4.743053615E-1,4.745980527E-1
1.471255533E1,-1.877650805E-2,-7.838288322E-3,-4.822093546E-1,4.826384337E-1
1.472257533E1,-1.631761156E-2,-3.358584829E-3,-4.849100709E-1,4.851961680E-1
1.473259533E1,-1.713194884E-2,-4.324429668E-3,-4.870696366E-1,4.873900237E-1
1.474261633E1,-1.945207641E-2,-6.517698523E-3,-4.821285903E-1,4.825648571E-1
1.475263633E1,-1.604003459E-2,-3.284886945E-3,-4.799059331E-1,4.801851496E-1
1.476265633E1,-2.148953453E-2,-4.423340317E-3,-4.839609563E-1,4.844580202E-1
1.477267633E1,-1.873476058E-2,-5.699261092E-3,-4.870033562E-1,4.873969038E-1
1.478269733E1,-1.959494874E-2,-3.543262370E-3,-4.830238223E-1,4.834341006E-1
1.479271733E1,-1.772727445E-2,-4.291610792E-3,-4.778117537E-1,4.781597497E-1
1.480273733E1,-1.935164630E-2,-3.175486811E-3,-4.711964726E-1,4.716043742E-1
1.481275733E1,-1.557448227E-2,-4.029296339E-3,-4.639398754E-1,4.642187067E-1
1.482277833E1,-1.686612889E-2,-2.216586145E-3,-4.586458504E-1,4.589612137E-1
1.483279833E1,-2.326996624E-2,-3.561748890E-3,-4.569211900E-1,4.575272137E-1
1.484281833E1,-1.702036336E-2,-4.916184116E-3,-4.497576952E-1,4.501064830E-1
1.485283833E1,-1.878444105E-2,-3.850386944E-3,-4.443003535E-1,4.447139360E-1
1.486285933E1,-1.664218865E-2,-3.761763917E-3,-4.271555841E-1,4.274962062E-1
1.487287933E1,-1.671808772E-2,-3.359626746E-3,-4.133316576E-1,4.136832614E-1
1.488289933E1,-1.529975235E-2,-1.192636089E-3,-4.026407599E-1,4.029331041E-1
1.489291933E1,-1.565182209E-2,-3.824371845E-3,-3.927705288E-1,3.931008696E-1
1.490294033E1,-1.371357869E-2,-2.458774485E-3,-3.851189017E-1,3.853708296E-1
1.491296033E1,-1.356976759E-2,-2.537071239E-3,-3.702089190E-1,3.704662185E-1
1.492298033E1,-1.273862459E-2,-2.958127996E-3,-3.558153808E-1,3.560556253E-1
1.493300033E1,-1.224673912E-2,-1.290722983E-3,-3.347974718E-1,3.350238733E-1
1.494302133E1,-1.063982025E-2,-4.012382124E-4,-3.193762004E-1,3.195536327E-1
1.495304133E1,-1.062916778E-2,-5.218794104E-4,-3.066324294E-1,3.068170437E-1
1.496306133E1,-1.106648613E-2,-2.854750259E-3,-2.930672467E-1,2.932900063E-1
1.497308133E1,-1.072799694E-2,-2.125310479E-3,-2.764922678E-1,2.767084766E-1
1.498310233E1,-1.001231186E-2,-2.272814047E-3,-2.563370764E-1,2.565426063E-1
1.499312233E1,-9.439999238E-3,-2.535934560E-3,-2.376438081E-1,2.378447479E-1
1.500314233E1,-8.780883625E-3,1.363890362E-3,-2.179878801E-1,2.181689254E-1
1.501316233E1,-6.546490826E-3,-3.114481224E-3,-2.049708813E-1,2.050990462E-1
1.502318333E1,-9.125854820E-3,-2.163299592E-3,-1.836450994E-1,1.838844301E-1
1.503320333E1,-7.512513548E-3,-1.323604956E-3,-1.665646434E-1,1.667392282E-1
1.504322333E1,-5.996721797E-3,-2.025278984E-3,-1.443912089E-1,1.445298711E-1
1.505324333E1,-5.811098963E-3,-3.315086942E-4,-1.214587316E-1,1.215981178E-1
1.506326433E1,-2.329548821E-3,-1.119005494E-3,-1.021651924E-1,1.021978743E-1
1.507328433E1,-4.115730524E-3,-1.641784096E-3,-7.839008421E-2,7.851522142E-2
1.508330433E1,-2.188321203E-3,-1.606699312E-3,-6.100386381E-2,6.106424185E-2
1.509332396E1,-7.342351601E-4,6.239645882E-4,-3.772144392E-2,3.773374835E-2
1.510334496E1,-4.092669114E-4,-8.138529956E-4,-1.640276611E-2,1.642804286E-2
1.511336496E1,1.267459244E-3,8.540847339E-4,4.197318107E-3,4.466922090E-3
1.512338496E1,3.241691273E-3,1.403240254E-3,2.655379288E-2,2.678771289E-2
1.513340496E1,2.339944709E-3,1.567290979E-3,4.615252838E-2,4.623837819E-2
1.514342596E1,4.374631681E-3,1.533480245E-3,6.485887617E-2,6.502432454E-2
1.515344596E1,1.153538469E-3,2.618718427E-3,8.721637726E-2,8.726330729E-2
1.516346596E1,4.878017120E-3,5.669379607E-4,1.072774455E-1,1.073897890E-1
1.517348596E1,4.368022084E-3,6.526918150E-4,1.280929744E-1,1.281690903E-1
1.518350696E1,7.341941353E-3,6.721210666E-4,1.497633457E-1,1.499447084E-1
1.519352696E1,6.037258543E-3,2.040719613E-3,1.676968038E-1,1.678178508E-1
1.520354696E1,7.372786757E-3,6.538267480E-4,1.823910624E-1,1.825411874E-1
1.521356696E1,8.315012790E-3,3.337147646E-4,2.006478310E-1,2.008203249E-1
1.522358796E1,7.605984341E-3,5.406704731E-4,2.174068838E-1,2.175405628E-1
1.523360796E1,7.908785716E-3,1.914328896E-3,2.388221622E-1,2.389607472E-1
1.524362796E1,1.176286675E-2,1.420930494E-3,2.559846342E-1,2.562586916E-1
1.525364796E1,1.110346802E-2,6.446189946E-4,2.741908133E-1,2.744162980E-1
1.526366896E1,9.481634945E-3,2.085667569E-3,2.886070609E-1,2.887703015E-1
1.527368896E1,1.341432519E-2,3.031356027E-3,3.019460440E-1,3.022590722E-1
1.528370896E1,1.250841096E-2,3.229570575E-4,3.162196279E-1,3.164670878E-1
1.529372896E1,1.192464679E-2,5.594951101E-3,3.360527158E-1,3.363107617E-1
1.530374996E1,2.190862969E-2,2.277149074E-2,3.281100392E-1,3.296281643E-1
1.531376996E1,7.944343612E-3,-2.263460495E-2,3.393357694E-1,3.401826015E-1
1.532378996E1,2.064627782E-2,3.257348761E-2,3.556826115E-1,3.577672721E-1
1.533380996E1,1.722571440E-2,-5.802051164E-4,3.729178011E-1,3.733158827E-1
1.534383096E1,1.465676352E-3,-2.243372984E-2,3.995947540E-1,4.002266706E-1
1.535385096E1,3.467236459E-2,3.956066072E-2,4.139273465E-1,4.172565960E-1
1.536387096E1,1.943964511E-3,-1.520288922E-2,4.177309275E-1,4.180120029E-1
1.537389096E1,2.417310327E-2,2.266406640E-2,4.127177894E-1,4.140458580E-1
1.538391096E1,1.610936597E-2,1.336236205E-2,4.161900282E-1,4.167159752E-1
1.539393196E1,1.412025094E-2,-4.803858697E-3,4.278661311E-1,4.281260149E-1
1.540395196E1,2.133480087E-2,2.170543000E-2,4.400197268E-1,4.410710366E-1
1.541397196E1,1.605561748E-2,-1.208529156E-2,4.471109211E-1,4.475623006E-1
1.542399196E1,1.825798675E-2,5.925044417E-3,4.475663602E-1,4.479777975E-1
1.543401296E1,2.216218039E-2,8.230542764E-3,4.394935071E-1,4.401288980E-1
1.544403296E1,1.412827149E-2,-7.847840898E-3,4.396493137E-1,4.399462645E-1
1.545405296E1,2.230071463E-2,9.228348732E-3,4.425801039E-1,4.432376706E-1
1.546407296E1,1.947558485E-2,-2.857794520E-3,4.523467124E-1,4.527747934E-1
1.547409396E1,1.716768928E-2,9.971309919E-4,4.582288563E-1,4.585514242E-1
1.548411396E1,1.898849197E-2,8.945334703E-3,4.521395266E-1,4.526264833E-1
1.549413396E1,1.370584592E-2,-2.082015853E-3,4.431865215E-1,4.434032903E-1
1.550415396E1,1.847348548E-2,8.962032385E-3,4.368809462E-1,4.373631772E-1
1.551417496E1,1.608862355E-2,-8.469226304E-4,4.298999906E-1,4.302017701E-1
1.552419496E1,1.750100777E-2,2.900086110E-3,4.338048100E-1,4.341673744E-1
1.553421496E1,1.547008194E-2,4.843661096E-3,4.338160157E-1,4.341187856E-1
1.554423496E1,1.477861591E-2,4.170136526E-4,4.260583818E-1,4.263148204E-1
1.555425596E1,1.725082844E-2,7.234971970E-3,4.147354364E-1,4.151571006E-1
1.556427596E1,1.694657654E-2,2.744064434E-3,4.012340307E-1,4.016011252E-1
1.557429596E1,1.373480260E-2,4.297774285E-4,3.895523548E-1,3.897946468E-1
1.558431596E1,1.575968787E-2,5.351367407E-3,3.871769011E-1,3.875344599E-1
1.559433696E1,1.563451998E-2,1.407225616E-3,3.814870417E-1,3.818098761E-1
1.560435696E1,1.639361866E-2,3.411495360E-3,3.723030686E-1,3.726794386E-1
1.561437696E1,1.381088607E-2,2.319332911E-3,3.583680987E-1,3.586416234E-1
1.562439696E1,1.125802658E-2,2.676380565E-3,3.374173045E-1,3.376156743E-1
1.563441796E1,1.308362372E-2,6.120646838E-3,3.246514201E-1,3.249725959E-1
1.564443796E1,1.194958575E-2,2.851326484E-3,3.116918802E-1,3.119338886E-1
1.565445796E1,1.339648105E-2,4.773845430E-4,3.043415546E-1,3.046366286E-1
1.566447796E1,1.369904075E-2,2.469497500E-3,2.928265035E-1,2.931571648E-1
1.567449896E1,1.149074733E-2,5.094108637E-4,2.741878331E-1,2.744289791E-1
1.568451896E1,9.844059125E-3,1.106144860E-3,2.550528049E-1,2.552451025E-1
1.569453896E1,8.917013183E-3,5.956168752E-4,2.344034463E-1,2.345737486E-1
1.570455896E1,8.676263504E-3,3.014565911E-3,2.192969322E-1,2.194892016E-1
1.571457996E1,9.112489410E-3,3.780491184E-3,2.059166729E-1,2.061528699E-1
1.572459996E1,7.606951986E-3,-1.679777866E-3,1.919793934E-1,1.921373853E-1
1.573461996E1,7.071922999E-3,1.973014092E-3,1.729015708E-1,1.730573837E-1
1.574463996E1,5.911746062E-3,1.159815700E-3,1.513028741E-1,1.514227645E-1
1.575466096E1,6.718949880E-3,1.677001594E-3,1.302266270E-1,1.304106246E-1
1.576468096E1,3.457735758E-3,2.069053240E-3,1.097709909E-1,1.098449242E-1
1.577470096E1,7.255403791E-3,1.516447403E-3,9.975138307E-2,1.000263911E-1
1.578472096E1,3.610149026E-3,-2.077025129E-3,8.040329069E-2,8.051109466E-2
1.579474196E1,3.808820620E-3,1.924907090E-3,5.970653892E-2,5.985886042E-2
1.580476196E1,7.204124704E-4,2.783863340E-3,3.725073487E-2,3.736155962E-2
1.581478196E1,2.875708509E-3,-2.089721151E-3,1.437737700E-2,1.481032083E-2
1.582480196E1,3.418165725E-3,-3.779164981E-4,-3.876395989E-3,5.181999968E-3
1.583482296E1,1.579234377E-4,-9.457024280E-4,-2.314276807E-2,2.316262090E-2
1.584484296E1,-5.685389042E-4,3.375925589E-4,-3.974837437E-2,3.975387365E-2
1.585486296E1,-3.650082275E-3,-1.625956036E-3,-5.687223375E-2,5.701243553E-2
1.586488296E1,-3.173111007E-3,-1.567632891E-3,-7.693142444E-2,7.701279227E-2
1.587490396E1,-5.685270764E-3,-2.040343825E-3,-1.000471339E-1,1.002293086E-1
1.588492396E1,-5.331086926E-3,-6.823041476E-4,-1.146699861E-1,1.147958698E-1
1.589494396E1,-5.978235044E-3,3.123863135E-4,-1.328135729E-1,1.329484187E-1
1.590496396E1,-9.074526839E-3,-6.088630296E-3,-1.490916163E-1,1.494915666E-1
1.591498496E1,-4.624118097E-3,-1.965789823E-3,-1.672716737E-1,1.673471231E-1
1.592500496E1,-9.437637404E-3,-3.691829043E-3,-1.799673885E-1,1.802524883E-1
