"Time (s)","Gyroscope x (rad/s)","Gyroscope y (rad/s)","Gyroscope z (rad/s)","Absolute (rad/s)"
8.049374999E-3,2.899109572E-2,1.187293208E-3,-4.623642191E-3,2.938147994E-2
1.806937500E-2,2.749455720E-2,-2.545971423E-3,-5.673448555E-3,2.818901674E-2
2.809037500E-2,2.174798958E-2,-3.388862126E-3,-5.229499657E-3,2.262315416E-2
3.811037500E-2,1.924055256E-2,-4.703355953E-4,-6.697854493E-3,2.037845267E-2
4.813037500E-2,1.612731814E-2,-3.501811763E-3,-5.784390029E-3,1.748748822E-2
5.815137501E-2,1.055411994E-2,-3.759339685E-3,-5.459484644E-3,1.246306765E-2
6.817137501E-2,5.807301961E-3,-4.168933257E-3,-3.741212888E-3,8.068545993E-3
7.819137500E-2,-6.695687771E-4,-2.105547115E-3,-2.650515642E-3,3.450635328E-3
8.821237501E-2,-8.646802045E-3,-7.555906195E-4,-1.753562945E-3,8.855116363E-3
9.823237501E-2,-1.298493147E-2,-6.159674376E-4,3.276695265E-3,1.340614012E-2
1.082523750E-1,-1.788701303E-2,-4.223557189E-4,4.675387405E-3,1.849277878E-2
1.182733750E-1,-3.226733208E-2,-1.917593181E-5,7.410603575E-3,3.310737278E-2
1.282933750E-1,-1.799332537E-2,-9.440906346E-3,8.056687191E-3,2.185865227E-2
1.383133750E-1,-3.211008012E-2,2.738256007E-4,1.465442870E-2,3.529708921E-2
1.483333750E-1,-3.983111680E-2,1.804057322E-2,9.678045288E-3,4.478442484E-2
1.583543750E-1,-6.439493597E-2,2.267973311E-2,8.634535596E-3,6.881593767E-2
1.683743750E-1,-7.195539027E-2,1.116528921E-2,8.513361216E-3,7.331247637E-2
1.783943750E-1,-6.936673820E-2,-1.214413438E-2,8.063650690E-3,7.088192175E-2
1.884153750E-1,-6.266969442E-2,-1.729442179E-2,6.666291039E-3,6.535309526E-2
1.984353750E-1,-6.542697549E-2,1.427677926E-3,6.243681535E-3,6.573972121E-2
2.084553750E-1,-7.716112584E-2,1.912225224E-2,6.864464376E-3,7.979110691E-2
2.184763750E-1,-9.148895741E-2,1.670196280E-2,6.018872373E-3,9.319555629E-2
2.284963750E-1,-9.875912219E-2,6.646731636E-4,5.488370545E-3,9.891374130E-2
2.385163750E-1,-9.528993070E-2,-1.785008609E-2,6.049026735E-3,9.713592122E-2
2.485363750E-1,-9.089757502E-2,-1.922347769E-2,4.496669862E-3,9.301683331E-2
2.585573750E-1,-8.948501199E-2,-1.034502033E-2,6.543633994E-3,9.031835895E-2
2.685773750E-1,-9.662362188E-2,3.451485652E-3,9.519450366E-3,9.715275083E-2
2.785973750E-1,-1.015195623E-1,7.767944597E-3,9.773022495E-3,1.022842826E-1
2.886183750E-1,-1.107695177E-1,2.397946082E-3,1.081351936E-2,1.113219134E-1
2.986383750E-1,-1.125309318E-1,-4.229330458E-3,1.243644953E-2,1.132950269E-1
3.086583750E-1,-1.080432385E-1,-4.455698654E-3,1.391450409E-2,1.090266392E-1
3.186793750E-1,-1.053435951E-1,4.683471285E-3,1.204869337E-2,1.061337786E-1
3.286993750E-1,-1.087753400E-1,1.111580338E-2,1.384659391E-2,1.102150799E-1
3.387193750E-1,-1.167643741E-1,1.247903891E-2,1.230096631E-2,1.180718393E-1
3.487393750E-1,-1.234598234E-1,2.756637055E-3,1.574816182E-2,1.244906890E-1
3.587603750E-1,-1.280592531E-1,-8.005942218E-3,1.370581053E-2,1.290392059E-1
3.687803750E-1,-1.239324063E-1,-1.264437009E-2,9.298278950E-3,1.249222935E-1
3.788003750E-1,-1.191974357E-1,-7.659518626E-3,1.062850188E-2,1.199152282E-1
3.888213750E-1,-1.206893399E-1,-2.624812536E-3,6.329094060E-3,1.208836790E-1
3.988413750E-1,-1.178863496E-1,5.283447914E-3,5.891289562E-3,1.181516548E-1
4.088613750E-1,-1.215191782E-1,4.110591952E-3,6.176248193E-3,1.217454462E-1
4.188823750E-1,-1.202822998E-1,-4.407335538E-3,9.181034751E-3,1.207126657E-1
4.289023750E-1,-1.151948571E-1,-4.505340010E-3,6.156215910E-3,1.154471836E-1
4.389223750E-1,-1.119969487E-1,-2.716111951E-3,6.200716831E-3,1.122013488E-1
4.489423750E-1,-1.152278930E-1,2.358008642E-3,7.604469080E-3,1.155026211E-1
4.589633750E-1,-1.138619781E-1,3.857499221E-3,9.637158364E-3,1.143341820E-1
4.689833750E-1,-1.132758185E-1,2.571458695E-3,1.160976198E-2,1.138982442E-1
4.790033750E-1,-1.117587686E-1,-2.034995705E-4,1.189867593E-2,1.123905790E-1
4.890243750E-1,-1.060313806E-1,-5.667507648E-3,1.333465241E-2,1.070167616E-1
4.990443750E-1,-1.044631898E-1,-1.325969817E-3,1.331093442E-2,1.053161773E-1
5.090643750E-1,-1.026900560E-1,3.931005485E-4,1.352398749E-2,1.035775089E-1
5.190853750E-1,-1.006965861E-1,1.146111917E-2,1.260563172E-2,1.021276733E-1
5.291053750E-1,-9.947792441E-2,9.844047949E-3,1.003328431E-2,1.004660615E-1
5.391253750E-1,-9.821633995E-2,5.985416006E-3,7.866896689E-3,9.871252555E-2
5.491453750E-1,-9.295686334E-2,-5.414593033E-4,5.721454509E-3,9.313434738E-2
5.591665417E-1,-8.591365814E-2,-2.430880675E-3,4.695004784E-3,8.607618083E-2
5.691865417E-1,-8.500099182E-2,-1.953109400E-3,6.105948240E-3,8.524239468E-2
5.792065417E-1,-8.125829697E-2,-1.677784603E-3,5.328317173E-3,8.145008748E-2
5.892275417E-1,-7.423686981E-2,-3.676753491E-3,4.885433242E-3,7.448824614E-2
5.992475417E-1,-7.237412781E-2,-6.038658321E-3,4.873742349E-3,7.278896300E-2
6.092675417E-1,-6.353642792E-2,-4.830116406E-3,3.800222417E-3,6.383298040E-2
6.192885417E-1,-5.546850339E-2,-3.175809048E-3,5.004229490E-3,5.578425355E-2
6.293085417E-1,-5.245433375E-2,3.615784459E-3,6.516638678E-3,5.298110613E-2
6.393285417E-1,-4.585017264E-2,7.057412528E-3,6.057646126E-3,4.678397674E-2
6.493495417E-1,-4.545868561E-2,3.177187173E-3,6.872573402E-3,4.608490947E-2
6.593695417E-1,-4.284297302E-2,2.453588415E-3,5.227707792E-3,4.323042172E-2
6.693895417E-1,-3.620344400E-2,-3.951313905E-3,5.393356550E-3,3.681562894E-2
6.794095417E-1,-3.112522885E-2,-1.866817009E-3,3.900091164E-3,3.142412430E-2
6.894305417E-1,-2.662209049E-2,-1.241506776E-3,5.273216870E-3,2.716769878E-2
6.994505417E-1,-2.206725255E-2,-2.602767199E-5,4.831744358E-3,2.259004351E-2
7.094705417E-1,-1.902592555E-2,2.808108460E-3,2.294817008E-3,1.936846667E-2
7.194915417E-1,-1.291624736E-2,3.131355392E-3,2.590073971E-3,1.354043262E-2
7.295115417E-1,-7.077532820E-3,2.168888925E-3,1.199105056E-3,7.498893447E-3
7.395315417E-1,1.895062625E-3,-2.864960581E-3,-3.488789778E-3,4.896010172E-3
7.495525417E-1,7.298083976E-3,-5.079805851E-5,-3.831805196E-3,8.243017725E-3
7.595725417E-1,8.743258193E-3,-2.480982803E-3,-3.120503388E-3,9.609234147E-3
7.695925417E-1,1.609811001E-2,-1.735031605E-3,-3.929305356E-3,1.666130010E-2
7.796125417E-1,1.909508929E-2,-5.105326883E-3,-5.717393011E-3,2.057608758E-2
7.896335417E-1,2.318011224E-2,-7.939995266E-3,-4.932825919E-3,2.499387725E-2
7.996535417E-1,2.903440595E-2,-7.874686271E-3,-8.560827933E-3,3.127771071E-2
8.096735417E-1,3.766305000E-2,-4.961987492E-3,-7.421261631E-3,3.870661157E-2
8.196945417E-1,4.607165605E-2,-1.948006451E-3,-4.792739172E-3,4.636121837E-2
8.297145417E-1,4.739897698E-2,3.923730925E-3,-6.221259013E-3,4.796626676E-2
8.397345417E-1,5.570951849E-2,7.219083607E-3,-6.667904556E-3,5.656966121E-2
8.497555417E-1,5.579766631E-2,2.352955518E-3,-7.170975208E-3,5.630576215E-2
8.597755417E-1,5.852977186E-2,-9.333984926E-4,-9.631814435E-3,5.932433966E-2
8.697955417E-1,5.978598446E-2,-1.760310028E-3,-8.271737956E-3,6.038115830E-2
8.798155417E-1,6.397508085E-2,-3.499113023E-3,-1.122851670E-2,6.504717018E-2
8.898365417E-1,6.695622206E-2,1.151565113E-3,-9.260706604E-3,6.760342048E-2
8.998565417E-1,6.982328743E-2,-6.939372979E-4,-1.267686207E-2,7.096813262E-2
9.098765417E-1,7.197272032E-2,7.548223948E-4,-1.213624049E-2,7.299267471E-2
9.198975417E-1,7.859075069E-2,-1.894037472E-3,-1.304138824E-2,7.968796195E-2
9.299175417E-1,8.480150253E-2,8.495780639E-5,-1.256175339E-2,8.572689016E-2
9.399375417E-1,8.725087345E-2,-3.812552663E-3,-1.365670934E-2,8.839545342E-2
9.499585417E-1,8.949911594E-2,1.435206505E-3,-1.483515836E-2,9.073165653E-2
9.599785417E-1,9.107849747E-2,2.200269606E-3,-1.418139413E-2,9.220220077E-2
9.699985417E-1,9.579415619E-2,-1.707120333E-3,-1.183648128E-2,9.653774863E-2
9.800185417E-1,9.722835571E-2,-2.700704616E-3,-1.216119435E-2,9.802316872E-2
9.900395417E-1,9.956421703E-2,-5.955087952E-3,-1.011695247E-2,1.002539232E-1
1.000059542E0,1.011809409E-1,-3.822464962E-3,-1.007025409E-2,1.017526611E-1
1.010079542E0,1.057892740E-1,-3.116727341E-3,-1.068437845E-2,1.063731189E-1
1.020100542E0,1.054826826E-1,-8.478914388E-4,-1.059043407E-2,1.060163786E-1
1.030120542E0,1.073221266E-1,-2.230338287E-3,-1.141068805E-2,1.079500675E-1
1.040140542E0,1.088457182E-1,1.925255056E-3,-9.828258306E-3,1.093054968E-1
1.050161542E0,1.096505225E-1,2.742312849E-3,-9.050615132E-3,1.100575803E-1
1.060181542E0,1.034883186E-1,1.862589270E-3,-1.184389926E-2,1.041805130E-1
1.070201542E0,1.043091044E-1,1.131817931E-3,-8.607892320E-3,1.046697954E-1
1.080222542E0,1.026191562E-1,8.519631810E-4,-1.141438540E-2,1.032555338E-1
1.090242542E0,1.037901491E-1,7.816557772E-4,-1.092303265E-2,1.043662717E-1
1.100262542E0,1.052769870E-1,-3.403376322E-4,-1.137472410E-2,1.058902458E-1
1.110282542E0,1.050524712E-1,-2.672734205E-3,-1.217953116E-2,1.057899153E-1
1.120303542E0,1.032873243E-1,-2.578093903E-3,-1.136874128E-2,1.039430912E-1
1.130323542E0,1.053235754E-1,-2.710186644E-3,-1.027551387E-2,1.058583338E-1
1.140343542E0,1.031341776E-1,-3.996070474E-3,-9.214425460E-3,1.036220672E-1
1.150364542E0,1.025336310E-1,-1.342230244E-3,-1.039793529E-2,1.030682499E-1
1.160384542E0,1.023762822E-1,7.624847349E-4,-1.199200563E-2,1.030790606E-1
1.170404542E0,1.006737277E-1,1.478875056E-3,-9.979987517E-3,1.011779950E-1
1.180425542E0,1.033668220E-1,5.726110935E-2,-5.061190110E-3,1.182757379E-1
1.190445542E0,9.795048833E-2,5.641102791E-2,-9.498019936E-4,1.130371813E-1
1.200465542E0,1.088273302E-1,3.095743619E-2,4.315505212E-4,1.131456446E-1
1.210485542E0,1.181811541E-1,1.048539183E-3,1.872587018E-3,1.182006396E-1
1.220506542E0,1.312398762E-1,-1.829696447E-2,2.863353118E-3,1.325401177E-1
1.230526542E0,1.311229616E-1,-2.261820808E-2,4.613050260E-3,1.331393805E-1
1.240546542E0,1.275436729E-1,-2.588351443E-2,6.876185071E-3,1.303250810E-1
1.250567542E0,1.229457259E-1,-2.420519106E-2,3.817810677E-3,1.253639441E-1
1.260587542E0,1.208775863E-1,-1.484879665E-2,-6.098297308E-4,1.217877232E-1
1.270607542E0,1.195990071E-1,1.822592225E-3,-2.901745960E-3,1.196480859E-1
1.280628542E0,1.202981025E-1,1.337364875E-2,-3.970921040E-3,1.211043193E-1
1.290648542E0,1.170317307E-1,1.553799957E-2,-8.895904757E-3,1.183933805E-1
1.300668542E0,1.139352769E-1,7.233672077E-4,-1.209942158E-2,1.145782116E-1
1.310689542E0,1.119349748E-1,-1.307660062E-2,-1.569149271E-2,1.137833863E-1
1.320709542E0,1.119883806E-1,-1.586152241E-2,-2.058774233E-2,1.149645180E-1
1.330729542E0,1.104557291E-1,-1.256000064E-2,-2.455718257E-2,1.138476039E-1
1.340749542E0,1.047784910E-1,-6.736959331E-3,-2.313004807E-2,1.075124082E-1
1.350770542E0,1.004370078E-1,3.876536619E-3,-2.435483597E-2,1.034203951E-1
1.360790542E0,9.484036267E-2,1.460374612E-2,-2.566353045E-2,9.933066288E-2
1.370810542E0,9.305232018E-2,2.058467455E-2,-2.993337810E-2,9.989229321E-2
1.380831542E0,9.653654695E-2,1.218400523E-2,-3.347401321E-2,1.028992927E-1
1.390851542E0,9.741379321E-2,4.552450497E-3,-3.043268062E-2,1.021583083E-1
1.400871542E0,9.523198754E-2,9.623045102E-3,-3.226899356E-2,1.010100113E-1
1.410892542E0,9.574784338E-2,1.008084230E-2,-3.016110137E-2,1.008908565E-1
1.420912542E0,9.499396384E-2,1.061882917E-2,-2.615157887E-2,9.909852560E-2
1.430932542E0,9.372550249E-2,3.272765549E-3,-2.448710240E-2,9.692677131E-2
1.440952542E0,9.681458771E-2,-8.443240076E-3,-1.945537888E-2,9.911036507E-2
1.450973542E0,9.765881300E-2,-8.286379278E-3,-1.565531455E-2,9.925218744E-2
1.460993542E0,9.831143916E-2,-3.456522012E-3,-1.274182182E-2,9.919395464E-2
1.471013542E0,9.520512819E-2,4.005122930E-3,-8.816588670E-3,9.569634099E-2
1.481034542E0,9.490082413E-2,2.057065023E-3,-1.389597892E-3,9.493328668E-2
1.491054542E0,9.361585230E-2,-3.116125241E-3,8.796817274E-4,9.367183076E-2
1.501074542E0,9.254509956E-2,-1.120277308E-2,4.432596266E-3,9.332601720E-2
1.511095542E0,8.899324387E-2,-1.292077824E-2,6.106127053E-3,9.013339422E-2
1.521115542E0,8.701156825E-2,-8.736426011E-3,6.872810889E-3,8.771871909E-2
1.531135542E0,7.950198650E-2,3.931432497E-3,8.802803233E-3,8.008440150E-2
1.541156542E0,7.577331364E-2,9.311180562E-3,1.126193255E-2,7.716945165E-2
1.551176542E0,7.331548631E-2,3.903897945E-3,1.329871826E-2,7.461405270E-2
1.561195875E0,7.165914774E-2,-1.138231438E-2,9.938937612E-3,7.323505319E-2
1.571215875E0,6.723856926E-2,-1.653526351E-2,1.129368786E-2,7.015687793E-2
1.581236875E0,6.084302440E-2,-8.032164536E-3,1.149825100E-2,6.243876249E-2
1.591256875E0,4.869741201E-2,5.046886392E-3,6.742644124E-3,4.942036269E-2
1.601276875E0,4.357189685E-2,1.023910753E-2,3.032926237E-3,4.486143288E-2
1.611297875E0,3.507721052E-2,-1.386655262E-3,2.110140864E-3,3.516797129E-2
1.621317875E0,3.035159037E-2,-1.081429143E-2,-4.464925267E-3,3.252850280E-2
1.631337875E0,2.105635777E-2,-1.086755469E-2,-4.910738207E-3,2.419895240E-2
1.641358875E0,9.544403292E-3,-6.835875101E-4,-1.185897738E-2,1.523805337E-2
1.651378875E0,-3.922136500E-3,1.204152871E-2,-1.540417690E-2,1.994167080E-2
1.661398875E0,-9.383955970E-3,9.395051748E-3,-1.812293008E-2,2.246700295E-2
1.671418875E0,-1.391665637E-2,5.185926333E-3,-2.158850245E-2,2.620363705E-2
1.681439875E0,-1.648396254E-2,-7.189915050E-4,-2.099591866E-2,2.670330635E-2
1.691459875E0,-2.134689316E-2,2.057620324E-3,-2.502368391E-2,3.295615884E-2
1.701479875E0,-3.023426980E-2,7.106647827E-3,-2.336246893E-2,3.886412829E-2
1.711500875E0,-4.093671590E-2,6.832875311E-3,-2.432040870E-2,4.810389977E-2
1.721520875E0,-4.761004448E-2,-2.391412854E-4,-2.169236168E-2,5.231951910E-2
1.731540875E0,-5.065989494E-2,1.647441997E-3,-2.115839720E-2,5.492555683E-2
1.741561875E0,-5.126543343E-2,1.880914718E-2,-1.259058621E-2,5.603973183E-2
1.751581875E0,-5.096343160E-2,3.045621514E-2,-8.966556750E-3,6.004374689E-2
1.761601875E0,-5.241101980E-2,2.089364268E-2,-3.515341785E-3,5.653155693E-2
1.771622875E0,-4.908633232E-2,3.941291943E-3,-1.629557228E-3,4.927126201E-2
1.781642875E0,-4.319847748E-2,-4.424813204E-3,4.006706644E-3,4.360895695E-2
1.791662875E0,-3.992252424E-2,-6.877318025E-3,2.572594443E-3,4.059216288E-2
1.801682875E0,-4.170379788E-2,-8.840821683E-3,3.057300113E-3,4.274007451E-2
1.811703875E0,-4.310222715E-2,-5.621592514E-3,-2.562051232E-4,4.346803341E-2
1.821723875E0,-4.791495204E-2,-1.158978883E-2,-1.919664675E-3,4.933407490E-2
1.831743875E0,-4.636392742E-2,-1.152187865E-2,-4.900274798E-3,4.802478680E-2
1.841764875E0,-4.748173058E-2,-1.511238702E-2,-7.052016445E-3,5.032524134E-2
1.851784875E0,-4.628251493E-2,-8.610278368E-3,-1.110934187E-2,4.836967602E-2
1.861804875E0,-4.867583513E-2,1.355150901E-2,-1.578545198E-2,5.293544008E-2
1.871825875E0,-4.730404168E-2,3.411910310E-2,-1.776684262E-2,6.097086397E-2
1.881845875E0,-4.809000343E-2,3.456685692E-2,-2.016159520E-2,6.256201682E-2
1.891865875E0,-4.465399683E-2,2.126809955E-2,-2.017597668E-2,5.341705276E-2
1.901886875E0,-3.569249064E-2,1.137337834E-2,-2.287996560E-2,4.389533516E-2
1.911906875E0,-2.414821647E-2,1.010038704E-2,-2.232043445E-2,3.439994144E-2
1.921926875E0,-1.685026102E-2,1.587644964E-2,-2.265693992E-2,3.239336161E-2
1.931946875E0,-1.130555943E-2,1.878275722E-2,-2.224921063E-2,3.123515674E-2
1.941967875E0,-2.308820374E-3,1.448084787E-2,-2.264727838E-2,2.698008200E-2
1.951987875E0,5.021264777E-3,9.492481127E-3,-2.061528526E-2,2.324457537E-2
1.962007875E0,1.534242835E-2,1.881956309E-2,-1.529085450E-2,2.869453422E-2
1.972028875E0,2.302831039E-2,2.502233163E-2,-5.750879180E-3,3.448902392E-2
1.982048875E0,2.829897404E-2,1.657824591E-2,-1.330564148E-3,3.282438986E-2
1.992068875E0,3.213951737E-2,3.412909340E-3,5.160624627E-3,3.272962837E-2
2.002089875E0,3.614209965E-2,1.310342923E-4,1.400569454E-2,3.876116635E-2
2.012109875E0,3.643904254E-2,1.121431217E-2,1.899752393E-2,4.259660238E-2
2.022129875E0,3.867692128E-2,1.766503230E-2,2.594816498E-2,4.981229639E-2
2.032150875E0,4.179601744E-2,2.499724738E-2,2.821478248E-2,5.628359797E-2
2.042170875E0,4.827332124E-2,3.392787650E-2,3.486408666E-2,6.853407099E-2
2.052190875E0,5.641913414E-2,4.088218883E-2,4.342481866E-2,8.209864150E-2
2.062210875E0,6.570353359E-2,3.684354573E-2,4.466339946E-2,8.757408543E-2
2.072231875E0,7.152333856E-2,2.876058407E-2,5.075884238E-2,9.229961665E-2
2.082251875E0,7.274605334E-2,2.364573814E-2,5.528766662E-2,9.438132913E-2
2.092271875E0,8.048679680E-2,2.950495854E-2,5.078213289E-2,9.963680072E-2
2.102292875E0,8.367711306E-2,3.185087070E-2,5.326784030E-2,1.041815724E-1
2.112312875E0,8.397085965E-2,2.694639564E-2,5.475575104E-2,1.038046520E-1
2.122332875E0,8.481326699E-2,2.246138826E-2,5.255955458E-2,1.022756618E-1
2.132353875E0,8.625137806E-2,2.610539272E-2,5.109561607E-2,1.035932128E-1
2.142373875E0,8.577055484E-2,2.914758213E-2,4.778541625E-2,1.024188246E-1
2.152393875E0,8.051694185E-2,9.877353162E-2,4.822270945E-2,1.362520392E-1
2.162414875E0,9.630342573E-2,1.072193906E-1,5.158818513E-2,1.530741270E-1
2.172434875E0,7.376642525E-2,1.065030023E-1,4.469539225E-2,1.370476307E-1
2.182454875E0,2.733512595E-2,5.240839720E-2,5.990737304E-2,8.415903132E-2
2.192474875E0,-1.517052110E-2,1.864883490E-2,7.279227674E-2,7.665924150E-2
2.202495875E0,-3.919235617E-2,3.266526759E-2,7.766372710E-2,9.292316717E-2
2.212515875E0,-3.273179382E-2,8.386506885E-2,8.617146313E-2,1.246203882E-1
2.222535875E0,-3.577362373E-2,1.280016601E-1,8.900086582E-2,1.599541536E-1
2.232556875E0,-6.246196106E-2,1.205637082E-1,7.621609420E-2,1.557112627E-1
2.242576875E0,-9.580707550E-2,9.113579988E-2,6.275208294E-2,1.463644549E-1
2.252596875E0,-1.114225239E-1,7.489477843E-2,3.986008465E-2,1.400465387E-1
2.262617875E0,-1.186110154E-1,8.128845692E-2,1.588851027E-2,1.446680025E-1
2.272637875E0,-1.280916035E-1,1.012560427E-1,1.819297206E-3,1.632897882E-1
2.282657875E0,-1.406008303E-1,1.342848986E-1,-4.413439427E-3,1.944749494E-1
2.292677875E0,-1.444562823E-1,1.452081203E-1,-5.531168077E-3,2.048990227E-1
2.302698875E0,-1.510364264E-1,1.239398569E-1,-5.743688438E-3,1.954637567E-1
2.312718875E0,-1.452456415E-1,9.243226796E-2,-6.240634248E-3,1.722758429E-1
2.322738875E0,-1.501753926E-1,7.233019918E-2,-6.906078197E-3,1.668292546E-1
2.332759875E0,-1.516806185E-1,7.231634855E-2,-9.970312007E-3,1.683332155E-1
2.342779875E0,-1.480098665E-1,7.170456648E-2,-1.317764539E-2,1.649912597E-1
2.352799875E0,-1.313307434E-1,4.341540486E-2,-2.408142574E-2,1.404014837E-1
2.362820875E0,-1.128400415E-1,5.434666574E-2,-3.208261728E-2,1.292893243E-1
2.372840875E0,-9.806695580E-2,1.114299223E-1,-4.157572240E-2,1.541502387E-1
2.382860875E0,-8.939392120E-2,1.678518802E-1,-4.101505876E-2,1.945450125E-1
2.392881875E0,-1.041329205E-1,2.225524187E-1,-3.485063836E-2,2.481689167E-1
2.402901875E0,-1.273256987E-1,2.227180153E-1,-3.110435605E-2,2.584233520E-1
2.412921875E0,-1.258194149E-1,2.082549185E-1,-4.012554884E-2,2.465982479E-1
2.422941875E0,-1.017434373E-1,1.676950753E-1,-3.493455425E-2,1.992330003E-1
2.432962875E0,-1.060692072E-1,1.377491504E-1,-3.221440315E-2,1.768142328E-1
2.442982875E0,-1.204132512E-1,1.157579869E-1,-3.404831141E-2,1.704656860E-1
2.453002875E0,-1.320344806E-1,1.200986728E-1,-2.171467803E-2,1.798007856E-1
2.463023875E0,-1.262845397E-1,1.234628558E-1,-1.368006598E-2,1.771383808E-1
2.473043875E0,-1.139477193E-1,1.273625195E-1,-1.057215687E-2,1.712222667E-1
2.483063875E0,-1.108536720E-1,1.245933622E-1,-8.156975731E-3,1.669687958E-1
2.493084875E0,-1.152188629E-1,1.249576807E-1,-1.669160835E-2,1.707876404E-1
2.503104875E0,-1.181618497E-1,1.367097050E-1,-8.649769239E-3,1.809049050E-1
2.513124875E0,-1.093047112E-1,1.612978727E-1,2.394625917E-3,1.948595850E-1
2.523145875E0,-1.051673219E-1,1.785386056E-1,9.647242725E-3,2.074349743E-1
2.533165875E0,-1.058261842E-1,1.843016893E-1,1.816722751E-2,2.132987156E-1
2.543185875E0,-1.003644839E-1,1.826851815E-1,2.325168438E-2,2.097320815E-1
2.553205875E0,-9.525920451E-2,1.663813144E-1,2.525438182E-2,1.933774589E-1
2.563227500E0,-8.844131231E-2,1.482353956E-1,3.222415224E-2,1.755961110E-1
2.573247500E0,-8.499651402E-2,1.586952209E-1,3.675951436E-2,1.837385165E-1
2.583267500E0,-7.290370762E-2,1.955908090E-1,5.354694277E-2,2.154947568E-1
2.593288500E0,-6.699442118E-2,2.056991011E-1,6.619296223E-2,2.262341285E-1
2.603308500E0,-5.817659572E-2,1.961546391E-1,6.883425266E-2,2.158687404E-1
2.613328500E0,-5.282710120E-2,2.038479894E-1,6.858897209E-2,2.214704326E-1
2.623349500E0,-5.764295533E-2,2.039347738E-1,7.076091319E-2,2.234260708E-1
2.633369500E0,-5.913885310E-2,2.174857408E-1,7.185973227E-2,2.365613504E-1
2.643389500E0,-5.585107952E-2,2.230416685E-1,6.727053970E-2,2.395668059E-1
2.653409500E0,-4.983260483E-2,1.889723837E-1,6.293437630E-2,2.053158202E-1
2.663430500E0,-3.865642846E-2,1.535059661E-1,6.016777083E-2,1.693474586E-1
2.673450500E0,-2.213977277E-2,1.222505867E-1,5.232902244E-2,1.348098739E-1
2.683470500E0,-7.369049825E-3,1.174414605E-1,4.968804494E-2,1.277329298E-1
2.693491500E0,2.324057743E-3,1.383312941E-1,4.843635857E-2,1.465845455E-1
2.703511500E0,-1.101550646E-3,1.318097562E-1,3.438236564E-2,1.362247125E-1
2.713531500E0,7.052249741E-3,9.664830565E-2,3.238473088E-2,1.021733821E-1
2.723552500E0,1.378164906E-2,1.056340113E-1,3.406644985E-2,1.118436462E-1
2.733572500E0,2.490141243E-2,1.227362975E-1,3.770619258E-2,1.307900456E-1
2.743592500E0,3.099466302E-2,1.096903607E-1,3.482700884E-2,1.191871005E-1
2.753613500E0,3.462108970E-2,9.302829951E-2,2.744818665E-2,1.029868308E-1
2.763633500E0,4.234337807E-2,9.567464888E-2,2.238824964E-2,1.069945505E-1
2.773653500E0,4.741217196E-2,1.117569432E-1,2.495686710E-2,1.239369744E-1
2.783674500E0,5.063699931E-2,1.210492477E-1,1.972084492E-2,1.326873686E-1
2.793694500E0,4.136574268E-2,1.072628647E-1,1.615913399E-2,1.160929129E-1
2.803714500E0,3.411389515E-2,6.071424484E-2,1.476216875E-2,7.118917751E-2
2.813734500E0,3.009651601E-2,1.688074507E-2,1.064518839E-2,3.611204600E-2
2.823755500E0,3.382796049E-2,3.533550538E-3,6.309512071E-3,3.459229442E-2
2.833775500E0,3.004787117E-2,1.733884588E-2,8.348428644E-3,3.568201787E-2
2.843795500E0,1.863752492E-2,1.981796883E-2,5.688383710E-3,2.779328935E-2
2.853816500E0,6.718813442E-3,1.651990972E-2,1.610019011E-3,1.790648018E-2
2.863836500E0,-6.882999092E-3,6.038247142E-3,-2.594273770E-3,9.516636036E-3
2.873856500E0,-1.465809811E-2,-4.036224447E-3,-3.220116487E-3,1.554091690E-2
2.883877500E0,-2.167307585E-2,-1.180011779E-2,-4.444498569E-3,2.507426099E-2
2.893897500E0,-2.449629270E-2,-3.234001622E-2,-4.919606261E-3,4.086743851E-2
2.903917500E0,-2.086549997E-2,-6.126387417E-2,-5.474471487E-3,6.495075986E-2
2.913938500E0,-1.892272383E-2,-7.817787677E-2,-6.811378058E-3,8.072326037E-2
2.923958500E0,-1.691107079E-2,-9.357220680E-2,-7.790473755E-3,9.540667524E-2
2.933978500E0,-1.806847937E-2,-1.087964326E-1,-7.498591207E-3,1.105412256E-1
2.943998500E0,-1.445329189E-2,-1.191899776E-1,-5.392969586E-3,1.201841609E-1
2.954019500E0,-9.324843064E-3,-1.885203123E-1,-9.527794085E-3,1.889911101E-1
2.964039500E0,-6.038052961E-4,-2.659778297E-1,-1.516281534E-2,2.664103629E-1
2.974059500E0,9.561746381E-3,-3.105628788E-1,-2.209236100E-2,3.114944640E-1
2.984080500E0,2.297366783E-2,-3.375412226E-1,-2.678917162E-2,3.393810927E-1
2.994100500E0,3.528253362E-2,-3.475512564E-1,-1.916720346E-2,3.498629942E-1
3.004120500E0,4.098072648E-2,-3.369784951E-1,-1.731207408E-2,3.399023890E-1
3.014141500E0,3.772687539E-2,-3.402190208E-1,-1.696825959E-2,3.427247016E-1
3.024161500E0,3.623723984E-2,-3.310164809E-1,-1.433178131E-2,3.333023374E-1
3.034181500E0,2.794842049E-2,-3.153206110E-1,-9.430233389E-3,3.166972233E-1
3.044201500E0,3.298741952E-2,-2.890293598E-1,-2.354135737E-3,2.909152499E-1
3.054222500E0,4.146213084E-2,-2.569225430E-1,4.524010234E-3,2.602859353E-1
3.064242500E0,4.946325719E-2,-2.210023999E-1,1.222250052E-2,2.267996122E-1
3.074262500E0,5.459436774E-2,-1.878122240E-1,2.272121236E-2,1.969015743E-1
3.084283500E0,5.337717757E-2,-1.678539068E-1,2.659698017E-2,1.781332548E-1
3.094303500E0,5.332577601E-2,-1.657622606E-1,2.111539617E-2,1.754041772E-1
3.104323500E0,5.777198821E-2,-1.587781012E-1,1.408640947E-2,1.695479725E-1
3.114344500E0,5.780101568E-2,-1.475898921E-1,9.673818015E-3,1.587996109E-1
3.124364500E0,5.099891126E-2,-1.285936087E-1,5.731221288E-3,1.384559571E-1
3.134384500E0,4.313406348E-2,-1.042914689E-1,3.332600754E-4,1.128599529E-1
3.144405500E0,3.615008295E-2,-8.843760937E-2,-6.146589294E-3,9.573828810E-2
3.154425500E0,2.924477495E-2,-8.014266193E-2,-1.312433742E-2,8.631541783E-2
3.164445500E0,2.246229164E-2,-6.920567900E-2,-1.710603572E-2,7.474354159E-2
3.174466500E0,1.505204570E-2,-6.202233210E-2,-2.382519096E-2,6.812469070E-2
3.184486500E0,3.188058268E-3,-6.099509820E-2,-2.386215702E-2,6.557414321E-2
3.194506500E0,-5.452301353E-3,-6.102306023E-2,-2.411063015E-2,6.583968375E-2
3.204526500E0,-1.325759850E-2,-6.812761724E-2,-2.462621219E-2,7.364500306E-2
3.214547500E0,-1.660652272E-2,-7.657889277E-2,-2.299635671E-2,8.166355268E-2
3.224567500E0,-1.827514917E-2,-8.181275427E-2,-1.636960171E-2,8.541236268E-2
3.234587500E0,-2.340359800E-2,-8.324792981E-2,-1.726176031E-2,8.818114643E-2
3.244608500E0,-3.132659569E-2,-8.446902782E-2,-1.312717423E-2,9.104227019E-2
3.254628500E0,-3.992914036E-2,-7.662229240E-2,-1.172288973E-2,8.719368146E-2
3.264648500E0,-4.552437738E-2,-7.362487912E-2,-1.023615524E-2,8.716576527E-2
3.274669500E0,-4.470013082E-2,-7.994269580E-2,-7.958087139E-3,9.193621407E-2
3.284689500E0,-4.355501384E-2,-8.457128704E-2,-7.096673362E-3,9.539237178E-2
3.294709500E0,-4.227670282E-2,-9.032131732E-2,-7.568052970E-3,1.000126761E-1
3.304730500E0,-4.401703551E-2,-8.494571596E-2,-1.089983433E-2,9.629164276E-2
3.314750500E0,-3.908033296E-2,-7.766809314E-2,-1.780700870E-2,8.875074465E-2
3.324770500E0,-4.911904037E-2,-7.603795081E-2,-2.004652843E-2,9.271630597E-2
3.334790500E0,-5.300752446E-2,-7.682438195E-2,-2.037942223E-2,9.553587892E-2
3.344811500E0,-5.764482543E-2,-7.531844079E-2,-2.348145470E-2,9.770963175E-2
3.354831500E0,-6.517678499E-2,-7.344624400E-2,-2.670441195E-2,1.017619265E-1
3.364851500E0,-7.190803438E-2,-6.975769997E-2,-3.030729480E-2,1.046682102E-1
3.374872500E0,-7.654539496E-2,-5.756175146E-2,-3.278936073E-2,1.012308989E-1
3.384892500E0,-8.436797559E-2,-4.625107348E-2,-2.956287377E-2,1.006532692E-1
3.394912500E0,-8.370937407E-2,-3.459122032E-2,-3.131150454E-2,9.583434743E-2
3.404933500E0,-7.940714806E-2,-3.566825017E-2,-3.664393723E-2,9.444838469E-2
3.414953500E0,-8.591111749E-2,-4.874436930E-2,-4.271381348E-2,1.076160002E-1
3.424973500E0,-7.974262536E-2,-6.851777434E-2,-4.475307092E-2,1.142646448E-1
3.434994500E0,-7.219469547E-2,-6.699151546E-2,-5.098912865E-2,1.109045916E-1
3.445014500E0,-7.145795226E-2,-6.028855965E-2,-4.968283698E-2,1.058741406E-1
3.455034500E0,-7.417623699E-2,-3.805835545E-2,-5.025408417E-2,9.734487932E-2
3.465055500E0,-6.934740394E-2,-2.002103440E-2,-4.715871066E-2,8.621976713E-2
3.475075500E0,-6.242531538E-2,-8.949475363E-3,-4.405373335E-2,7.692687782E-2
3.485095500E0,-5.370355025E-2,-1.478023361E-2,-4.007438943E-2,6.861838896E-2
3.495115500E0,-4.561286420E-2,-2.031614818E-2,-3.869327530E-2,6.316999929E-2
3.505136500E0,-4.056768864E-2,-3.139539436E-2,-3.579900041E-2,6.255378949E-2
3.515156500E0,-3.551966697E-2,-3.504499048E-2,-3.029158153E-2,5.837275058E-2
3.525176500E0,-3.068562225E-2,-3.813750669E-2,-2.926711366E-2,5.703192765E-2
3.535197500E0,-2.361306548E-2,-3.886162117E-2,-2.778826095E-2,5.329155569E-2
3.545217500E0,-1.748039201E-2,-4.118764773E-2,-2.748664096E-2,5.251192114E-2
3.555237500E0,-1.553708222E-2,-3.971012682E-2,-2.614813484E-2,5.002019644E-2
3.565257875E0,-1.688386127E-2,-3.262389079E-2,-2.446253970E-2,4.413387441E-2
3.575277875E0,-1.676801406E-2,-1.863936335E-2,-2.496081777E-2,3.537844803E-2
3.585297875E0,-1.521423180E-2,-1.771504432E-2,-2.556925453E-2,3.462776952E-2
3.595317875E0,-1.669121906E-2,-1.174716745E-2,-2.193031274E-2,2.995882764E-2
3.605338875E0,-1.883631572E-2,-1.072661206E-2,-1.610924304E-2,2.700693814E-2
3.615358875E0,-2.230508253E-2,-1.156897005E-2,-1.706478558E-2,3.037374988E-2
3.625378875E0,-2.567689493E-2,-1.411547884E-2,-1.442209166E-2,3.265802205E-2
3.635399875E0,-2.517302707E-2,-1.973927580E-2,-1.162870228E-2,3.403743553E-2
3.645419875E0,-2.800809965E-2,-2.615062520E-2,-7.498207502E-3,3.904525528E-2
3.655439875E0,-2.497395873E-2,-2.107970044E-2,-5.750641227E-3,3.318316229E-2
3.665460875E0,-2.455701120E-2,-1.776080392E-2,-5.543052219E-3,3.080938790E-2
3.675480875E0,-1.982937008E-2,-1.183340792E-2,-3.873250447E-3,2.341442995E-2
3.685500875E0,-1.939982548E-2,-5.993636325E-3,-4.324716050E-3,2.076005959E-2
3.695521875E0,-1.256801840E-2,-3.698790213E-3,-3.196601290E-3,1.348534002E-2
3.705541875E0,-1.131131034E-2,-1.139880344E-2,-1.916785492E-3,1.617258570E-2
3.715561875E0,-7.219896652E-3,-1.368113235E-2,-2.736506285E-3,1.570951166E-2
3.725582875E0,-6.726084277E-3,-1.362251956E-2,-1.902244985E-3,1.531116537E-2
3.735602875E0,-5.171330646E-3,-1.300892700E-2,-2.521429909E-3,1.422436118E-2
3.745622875E0,-4.106563516E-3,-1.273924485E-2,1.268231310E-3,1.344472513E-2
3.755642875E0,-4.182996228E-3,-9.527739137E-3,2.737231087E-3,1.075954016E-2
3.765663875E0,-4.288242199E-3,-8.423235267E-3,1.900176285E-3,9.641088291E-3
3.775683875E0,-1.049039885E-3,-7.307370659E-3,1.684460323E-3,7.572024644E-3
3.785703875E0,4.986529239E-4,-1.056154259E-2,5.280990154E-3,1.181878562E-2
3.795724875E0,1.207586378E-3,-7.822747342E-3,3.759260057E-3,8.762743692E-3
3.805744875E0,1.634064596E-3,-6.124406122E-3,4.869255237E-3,7.993007195E-3
3.815764875E0,4.702629521E-4,-6.296712905E-3,4.607466515E-3,7.816552203E-3
3.825785875E0,-2.571381629E-6,-2.879561856E-3,7.125867531E-3,7.685692627E-3
3.835805875E0,-1.767449081E-3,-4.352556076E-3,8.729090914E-3,9.912903149E-3
3.845825875E0,-4.870378412E-3,-4.146986641E-3,9.967770427E-3,1.184375495E-2
3.855846875E0,-6.884793751E-3,-9.826177731E-3,1.000958215E-2,1.562516844E-2
3.865866875E0,-8.408174850E-3,-1.173701510E-2,1.304384787E-2,1.945756652E-2
3.875886875E0,-3.788389266E-3,-1.250240766E-2,6.976367906E-3,1.480985481E-2
3.885906875E0,5.673705600E-4,-1.017511450E-2,9.298388846E-3,1.379546663E-2
3.895927875E0,-1.748520881E-4,-8.414498530E-3,9.950330481E-3,1.303239945E-2
3.905947875E0,2.454237081E-3,-6.674914155E-3,2.293514786E-3,7.472480760E-3
3.915967875E0,2.459829673E-3,-3.070059698E-3,1.331314677E-3,4.153122601E-3
3.925988875E0,2.721335273E-3,-4.617895931E-3,9.240782238E-4,5.439168049E-3
3.936008875E0,3.376472741E-3,-5.957465619E-3,3.967723169E-4,6.859256012E-3
3.946028875E0,8.642062545E-3,-5.847650580E-3,-4.138996359E-3,1.122548677E-2
3.956049875E0,5.848406814E-3,-6.616504863E-3,-3.562155878E-3,9.522129665E-3
3.966069875E0,6.821087562E-3,-5.465546623E-3,-7.321671117E-3,1.140203067E-2
3.976089875E0,8.478106000E-3,-7.958797738E-3,-6.664935499E-3,1.340306338E-2
3.986110875E0,7.864850573E-3,-6.838380359E-3,-6.638390478E-3,1.235668032E-2
3.996130875E0,7.493871730E-3,-8.180612698E-3,-9.992642328E-3,1.493095571E-2
4.006150875E0,6.266709417E-3,-4.141388461E-3,-1.144613512E-2,1.369075434E-2
4.016170875E0,6.934363861E-3,-4.655911122E-3,-1.042454597E-2,1.335792159E-2
4.026191875E0,1.047738828E-2,-6.236247253E-3,-1.233362034E-2,1.734314376E-2
4.036211875E0,1.020334847E-2,-4.422900733E-3,-1.621065103E-2,1.965847343E-2
4.046231875E0,1.004865021E-2,-6.206409074E-3,-1.142460387E-2,1.643217752E-2
4.056252875E0,1.225507818E-2,-8.265831508E-3,-1.052631903E-2,1.814701915E-2
4.066272875E0,1.158074383E-2,-9.654678404E-3,-1.034342032E-2,1.828422234E-2
4.076292875E0,1.219806448E-2,-7.210162003E-3,-1.504256856E-2,2.066538366E-2
4.086313875E0,1.807105541E-2,-5.905776285E-3,-1.409814321E-2,2.366852085E-2
4.096333875E0,1.798663288E-2,-5.159292370E-3,-1.802124642E-2,2.597888725E-2
4.106353875E0,1.720620692E-2,-2.742257901E-3,-1.399668399E-2,2.234906481E-2
4.116374875E0,1.749862358E-2,-6.244048942E-3,-1.312556397E-2,2.274797582E-2
4.126394875E0,1.952969283E-2,-6.539865397E-3,-1.472419314E-2,2.531759477E-2
4.136414875E0,1.541137975E-2,-5.432789680E-3,-1.285252348E-2,2.078973759E-2
4.146435875E0,1.692781597E-2,-7.363302633E-3,-9.533346631E-3,2.077628160E-2
4.156455875E0,2.123681083E-2,-7.372624241E-3,-9.200717323E-3,2.429014042E-2
4.166475875E0,1.761563681E-2,-5.636271089E-3,-1.003073622E-2,2.104029185E-2
4.176495875E0,1.617726311E-2,-8.790519089E-3,-8.551617153E-3,2.030042422E-2
4.186516875E0,1.723487675E-2,-6.128661335E-3,-9.002578445E-3,2.038744430E-2
4.196536875E0,1.683407277E-2,-2.546709729E-3,-5.623027217E-3,1.793014700E-2
4.206556875E0,1.666529663E-2,-6.343820598E-3,-3.746383358E-3,1.822118437E-2
4.216577875E0,1.398162916E-2,-5.744874943E-3,-2.788710641E-3,1.537096123E-2
4.226597875E0,1.762278751E-2,-5.068502855E-3,-5.159114487E-3,1.904911607E-2
4.236617875E0,1.455509104E-2,-2.488964703E-3,-3.690381069E-3,1.522052998E-2
4.246638875E0,1.857569814E-2,-2.822112292E-3,-3.304677084E-3,1.907725792E-2
4.256658875E0,1.705316827E-2,-3.561405931E-3,-3.953423351E-3,1.786403416E-2
4.266678875E0,1.953002065E-2,-3.217282472E-3,-8.827868733E-4,1.981292320E-2
4.276699875E0,1.755342260E-2,-2.967744367E-3,-2.138733631E-3,1.793054191E-2
4.286719875E0,2.039165050E-2,-2.266602125E-3,5.386605044E-4,2.052430389E-2
4.296739875E0,1.819214597E-2,-2.960621845E-3,-1.841939287E-3,1.852328797E-2
4.306760875E0,1.732126251E-2,-1.384471776E-3,4.170172615E-4,1.738150743E-2
4.316780875E0,1.726959646E-2,-4.047633149E-3,-2.331897616E-3,1.789022198E-2
4.326800875E0,1.735752821E-2,-2.470592968E-3,1.367741497E-3,1.758574229E-2
4.336820875E0,1.582248136E-2,-3.612023778E-3,9.640061762E-4,1.625813459E-2
4.346841875E0,1.523376256E-2,-2.996257273E-3,4.324286710E-4,1.553164750E-2
4.356861875E0,1.454160735E-2,-3.575494746E-3,-2.868911251E-4,1.497747687E-2
4.366881875E0,1.083363127E-2,-2.807994140E-3,1.420855755E-3,1.128145508E-2
4.376902875E0,8.031985722E-3,-3.612002591E-3,8.890224271E-4,8.851537620E-3
4.386922875E0,8.638968691E-3,-3.362711286E-3,9.298872901E-4,9.316882398E-3
4.396942875E0,8.060529828E-3,-3.001054050E-3,-6.208714331E-4,8.623453360E-3
4.406963875E0,5.715261213E-3,-3.160880413E-3,-1.939168142E-4,6.533986490E-3
4.416983875E0,5.564526189E-3,-1.408786746E-3,-2.275177278E-3,6.174549656E-3
4.427003875E0,5.895905197E-3,-8.913010824E-4,2.454350761E-4,5.967943874E-3
4.437024875E0,4.830108024E-3,-4.565131851E-3,-9.436663240E-4,6.712740012E-3
4.447044875E0,3.134269733E-3,-4.108908586E-3,-1.866292208E-3,5.494526653E-3
4.457064875E0,3.867704421E-3,-9.477364365E-4,-8.971679490E-4,4.081942206E-3
4.467084875E0,3.610701766E-3,-4.320366308E-3,-4.715894349E-3,7.344548440E-3
4.477105875E0,4.506855272E-3,-2.165069804E-3,-6.686367560E-3,8.349058800E-3
4.487125875E0,3.408528864E-3,-2.262556227E-3,-3.046192462E-3,5.100639000E-3
4.497145875E0,2.138004638E-4,-4.272976890E-3,-1.716475934E-3,4.609808214E-3
4.507166875E0,5.718143657E-4,-3.182381857E-3,-2.780188574E-3,4.264267165E-3
4.517186875E0,-2.184824087E-3,-3.667609766E-3,-3.942125477E-3,5.810780581E-3
4.527206875E0,-1.988519914E-3,-5.192259792E-3,-2.416852396E-3,6.062585975E-3
4.537227875E0,-3.985624760E-3,-1.920566428E-3,-1.911384519E-3,4.819457533E-3
4.547247875E0,-7.098852657E-3,-2.729099710E-3,-1.870085136E-3,7.831916284E-3
4.557267875E0,-7.265033200E-3,-4.064142238E-3,-5.528469570E-3,9.993094382E-3
4.567288792E0,-8.798594587E-3,-3.188800998E-3,-4.477621522E-3,1.037462351E-2
4.577308792E0,-8.079540916E-3,5.835668417E-4,-2.478918992E-3,8.471397231E-3
4.587328792E0,-8.676080965E-3,-2.515284112E-3,-3.616868053E-3,9.730507159E-3
4.597349792E0,-1.168705057E-2,-2.312617609E-3,-5.029142369E-3,1.293165203E-2
4.607369792E0,-1.068591513E-2,5.295270821E-4,-1.632140134E-3,1.082280289E-2
4.617389792E0,-1.273681596E-2,-3.661489580E-3,-3.260130528E-3,1.364776311E-2
4.627409792E0,-1.147560310E-2,-3.370428458E-3,-2.722598612E-3,1.226628703E-2
4.637430792E0,-1.541148964E-2,-2.739525400E-3,-1.958537381E-3,1.577513490E-2
4.647450792E0,-1.066245697E-2,-3.440972185E-3,-1.964442199E-3,1.137485435E-2
4.657470792E0,-9.989744052E-3,-1.876098802E-3,-1.849659951E-3,1.033131041E-2
4.667491792E0,-1.262430754E-2,-9.429894853E-4,-2.282575471E-3,1.286361227E-2
4.677511792E0,-1.181257609E-2,-1.927027246E-3,-1.785895787E-3,1.210123183E-2
4.687531792E0,-1.181887742E-2,-2.971203998E-3,-3.246682463E-4,1.219095264E-2
4.697552792E0,-1.227268111E-2,-1.866025850E-4,-1.766503672E-3,1.240056682E-2
4.707572792E0,-1.210921910E-2,-5.051421002E-3,-1.470765215E-3,1.320277212E-2
4.717592792E0,-1.464268286E-2,-3.327290295E-3,-2.435806091E-4,1.501793440E-2
4.727613792E0,-1.540249214E-2,-2.344060456E-3,1.854970586E-3,1.568987888E-2
4.737633792E0,-1.646402851E-2,-3.261253005E-3,3.517582081E-3,1.714856815E-2
4.747653792E0,-1.779185608E-2,-1.850430388E-3,1.362611307E-3,1.793964729E-2
4.757674792E0,-1.597051881E-2,-2.497312147E-3,6.648631534E-4,1.617825955E-2
4.767694792E0,-1.581469178E-2,-3.496190766E-3,7.978342474E-4,1.621617604E-2
4.777714792E0,-1.921261847E-2,-3.436535830E-3,2.797868103E-3,1.971706248E-2
4.787734792E0,-1.432763133E-2,-4.280870780E-4,5.271381815E-4,1.434371475E-2
4.797755792E0,-1.625229791E-2,3.516864963E-4,5.135560641E-4,1.626421257E-2
4.807775792E0,-1.629155129E-2,-2.192491665E-3,8.713729330E-4,1.646149914E-2
4.817795792E0,-1.508620568E-2,-7.786194328E-4,3.006695304E-3,1.540259934E-2
4.827816792E0,-1.328068692E-2,1.054804074E-3,1.192800933E-3,1.337580019E-2
4.837836792E0,-1.284712460E-2,-3.544474952E-3,3.053551540E-3,1.367245736E-2
4.847856792E0,-1.316590514E-2,-1.167134149E-3,2.386429813E-3,1.343124371E-2
4.857877792E0,-1.072964538E-2,-5.735154264E-4,1.648467733E-3,1.087067872E-2
4.867897792E0,-1.026865188E-2,-1.371225109E-3,1.762717380E-3,1.050869365E-2
4.877917792E0,-1.224817988E-2,-2.656200435E-3,4.190188833E-3,1.321480206E-2
4.887938792E0,-1.111817732E-2,-7.766992785E-4,4.622213542E-3,1.206573607E-2
4.897958792E0,-8.804155514E-3,-1.567924395E-3,2.063448075E-3,9.177655429E-3
4.907978792E0,-9.722132236E-3,-8.360608481E-4,7.015476585E-4,9.783201013E-3
4.917999792E0,-1.055943035E-2,-1.702653244E-3,7.436255692E-4,1.072164056E-2
4.928019792E0,-9.985488839E-3,-3.755584126E-3,2.807655837E-3,1.103165132E-2
4.938039792E0,-8.567621000E-3,-9.627272375E-4,1.396446954E-3,8.733901616E-3
4.948060792E0,-8.429029025E-3,-2.899608575E-3,1.988868695E-3,9.133009300E-3
4.958080792E0,-8.776306175E-3,-3.075377550E-3,3.311128123E-3,9.871426776E-3
4.968100792E0,-8.375774138E-3,-4.348178394E-3,-4.101263767E-4,9.446081272E-3
4.978120792E0,-8.274306543E-3,-1.831224421E-3,2.684466774E-3,8.889538431E-3
4.988141792E0,-7.537627593E-3,-1.962932292E-3,4.813516280E-4,7.803885718E-3
4.998161792E0,-2.586810850E-3,-5.261569750E-4,-1.498175552E-4,2.644026633E-3
5.008181792E0,-3.089005128E-3,-1.095708692E-3,-1.536326716E-3,3.619783142E-3
5.018202792E0,2.130484208E-4,-1.710899174E-3,-1.173071563E-3,2.085344697E-3
5.028222792E0,5.287211388E-5,-2.127079293E-3,-1.624774653E-3,2.677154171E-3
5.038242792E0,-1.092020422E-3,-1.417613123E-3,-1.508926973E-3,2.340725566E-3
5.048263792E0,4.079006612E-3,-1.525106141E-3,-5.406275392E-3,6.942049935E-3
5.058283792E0,2.123979852E-3,6.067545619E-4,-4.717315547E-3,5.208887355E-3
5.068303792E0,3.713452257E-3,-2.904572524E-3,-3.207599744E-3,5.702189521E-3
5.078324792E0,3.600267693E-3,-2.131723333E-3,-1.962305512E-3,4.621343393E-3
5.088344792E0,1.426192466E-3,6.257363129E-4,-5.856304895E-3,6.059857912E-3
5.098364792E0,3.824102692E-3,-4.131734371E-3,-2.994471695E-3,6.376664571E-3
5.108384792E0,2.780493814E-3,-2.594865393E-3,-3.740177024E-3,5.334172516E-3
5.118405792E0,6.889485288E-3,-2.647862304E-3,-3.284243867E-3,8.078517197E-3
5.128425792E0,5.059696734E-3,-2.515326953E-3,-2.456814982E-3,6.161439813E-3
5.138445792E0,4.700702615E-3,-1.430355245E-3,-4.252051935E-3,6.497881721E-3
5.148466792E0,4.903053865E-3,-1.190116862E-3,-5.868246779E-3,7.739033247E-3
5.158486792E0,3.387448844E-3,4.964631516E-4,-4.280470312E-3,5.481214411E-3
5.168506792E0,9.857389145E-3,-2.369920257E-3,-4.476270173E-3,1.108249238E-2
5.178527792E0,8.061086759E-3,-1.546470914E-3,-2.855203813E-3,8.690505212E-3
5.188547792E0,8.260759525E-3,2.239309251E-4,-1.771189505E-3,8.451473555E-3
5.198567792E0,1.265390962E-2,-1.477829181E-3,-9.469411452E-4,1.277505794E-2
5.208588792E0,1.211037580E-2,8.971604984E-4,-3.133889521E-3,1.254142586E-2
5.218608792E0,1.204539463E-2,-9.452141821E-4,-2.086201916E-3,1.226120712E-2
5.228628792E0,1.171068288E-2,-3.122426104E-3,-2.993688220E-3,1.248406214E-2
5.238649792E0,1.226808224E-2,-1.350358594E-3,-4.430996254E-3,1.311346781E-2
5.248669792E0,1.321810111E-2,-4.692605697E-3,-4.495530389E-3,1.472917305E-2
5.258689792E0,1.246815454E-2,-3.231861629E-3,-4.732285626E-3,1.372203828E-2
5.268709792E0,1.259289868E-2,-2.014013473E-3,-3.515619086E-3,1.322864033E-2
5.278730792E0,1.202244963E-2,-1.118126092E-3,-3.981938586E-3,1.271398191E-2
5.288750792E0,8.910203353E-3,-3.242958337E-3,-4.061475862E-3,1.031523576E-2
5.298770792E0,9.722733870E-3,-3.665335476E-3,-4.994647577E-3,1.152877888E-2
5.308791792E0,1.196297444E-2,8.471631445E-4,-5.583371036E-3,1.322892570E-2
5.318811792E0,7.937606424E-3,9.997622110E-4,-3.766562790E-3,8.842630574E-3
5.328831792E0,9.570711292E-3,1.927510253E-3,-3.645925550E-3,1.042144825E-2
5.338852792E0,9.023964405E-3,-3.188954899E-3,-4.714119714E-3,1.066884678E-2
5.348872792E0,1.231337897E-2,-2.203230513E-3,-3.924669232E-3,1.311016991E-2
5.358892792E0,1.015035994E-2,-2.366216155E-3,-1.996540930E-3,1.061201967E-2
5.368913792E0,1.205012575E-2,-3.860464785E-4,-1.988452626E-3,1.221918599E-2
5.378933792E0,1.108925603E-2,-1.592192100E-3,-3.051053965E-3,1.161101225E-2
5.388953792E0,1.086747833E-2,9.633103618E-4,-2.685945947E-3,1.123585144E-2
5.398974792E0,1.067120396E-2,-1.152304932E-3,-3.510726849E-3,1.129281203E-2
5.408994792E0,1.125692576E-2,-1.849737018E-4,-2.617529826E-3,1.155872204E-2
5.419014792E0,9.294176474E-3,-1.562116668E-4,-5.781365093E-3,1.094670273E-2
5.429035792E0,1.157576591E-2,-7.262604777E-4,-2.666636370E-3,1.190112432E-2
5.439055792E0,7.004450075E-3,-4.391716793E-4,-3.564388026E-3,7.871470931E-3
5.449075792E0,8.581840433E-3,-1.862637000E-3,-3.501271363E-3,9.453904113E-3
5.459095792E0,8.353075013E-3,-3.883109894E-4,-1.101496862E-3,8.434331208E-3
5.469116792E0,5.739966407E-3,-2.167389262E-3,-2.212874591E-3,6.522392546E-3
5.479136792E0,4.374297336E-3,-1.784959342E-3,-2.024542628E-4,4.728799506E-3
5.489156792E0,4.721255042E-3,-2.221258357E-3,1.563879196E-3,5.447013493E-3
5.499177792E0,2.376607619E-3,-1.481698360E-3,-2.422074089E-3,3.702720176E-3
5.509197792E0,2.670369577E-3,-1.113801030E-3,-4.813882988E-4,2.933114574E-3
5.519217792E0,4.009939730E-3,1.360009308E-3,-5.381135852E-4,4.268349586E-3
5.529238792E0,1.434004400E-3,-1.148362644E-4,1.173448050E-3,1.856484935E-3
5.539258792E0,8.068298921E-4,-1.257332508E-3,-1.320335141E-4,1.499764101E-3
5.549278792E0,1.404950861E-3,-2.179173753E-3,1.443489222E-3,2.967548871E-3
5.559299792E0,5.069328472E-4,-1.248111948E-4,2.206751145E-3,2.267666061E-3
5.569319750E0,3.259428777E-4,-2.715761308E-3,-1.354964450E-3,3.052462432E-3
5.579339750E0,3.849305212E-3,-1.707755029E-3,1.252536546E-3,4.393452590E-3
5.589360750E0,2.744420897E-3,-1.482097432E-4,-8.882569382E-4,2.888392733E-3
5.599380750E0,9.688916616E-4,-4.765775520E-4,-8.049000171E-4,1.346752113E-3
5.609400750E0,-5.635675043E-4,-9.451138321E-4,1.601392985E-3,1.943015178E-3
5.619420750E0,-1.894615591E-3,1.168903545E-3,-1.260972465E-3,2.558506458E-3
5.629441750E0,-2.657542937E-3,-1.639873488E-3,9.562969790E-4,3.265918466E-3
5.639461750E0,-1.522503793E-3,-2.307261573E-3,-1.335619483E-3,3.070073805E-3
5.649481750E0,-5.069492385E-3,3.001017030E-4,-5.927044549E-4,5.112838022E-3
5.659502750E0,-5.133409053E-3,-1.446399605E-3,4.975936608E-4,5.356450296E-3
5.669522750E0,-5.668566562E-3,-1.740738982E-3,-1.554412302E-4,5.931861517E-3
5.679542750E0,-6.907735020E-3,1.594870235E-3,1.569475571E-4,7.091195013E-3
5.689563750E0,-6.254415959E-3,-3.804969601E-4,4.891640274E-4,6.285044023E-3
5.699583750E0,-6.747633219E-3,-2.017989755E-4,-4.687750479E-4,6.766906747E-3
5.709603750E0,-6.819406524E-3,-2.078952035E-3,-7.982797106E-4,7.173813310E-3
5.719624750E0,-1.052812487E-2,-3.082963871E-3,1.332515501E-3,1.105086771E-2
5.729644750E0,-7.624156773E-3,-8.744257502E-5,-4.503327073E-4,7.637945552E-3
5.739664750E0,-8.164246567E-3,5.903320853E-4,-1.013591187E-3,8.248077416E-3
5.749685750E0,-8.184454404E-3,-3.230622504E-3,-5.160332657E-4,8.814108349E-3
5.759705750E0,-9.361038916E-3,-2.426614519E-3,1.926884404E-3,9.860547202E-3
5.769725750E0,-7.225085981E-3,6.291747559E-4,-4.816828296E-4,7.268407436E-3
5.779745750E0,-7.450922392E-3,-2.805611584E-4,9.865178727E-4,7.521181860E-3
5.789766750E0,-5.406443030E-3,-1.476114616E-3,2.689811226E-4,5.610783496E-3
5.799786750E0,-6.234685890E-3,-9.797015227E-4,-3.593135159E-3,7.262351100E-3
5.809806750E0,-9.823555127E-3,-2.432193141E-4,-1.377631095E-3,9.922663876E-3
5.819827750E0,-9.923689067E-3,-7.441597991E-4,-9.129095124E-4,9.993336895E-3
5.829847750E0,-5.790219642E-3,-2.767301165E-3,-6.831393694E-4,6.453780182E-3
5.839867750E0,-8.413700387E-3,-1.306823920E-3,-1.103119808E-3,8.585744946E-3
5.849888750E0,-1.014793478E-2,-1.931006555E-4,-2.887397539E-3,1.055248467E-2
5.859908750E0,-1.029254496E-2,-8.809845895E-6,2.429337241E-3,1.057535999E-2
5.869928750E0,-1.079212315E-2,-6.561665796E-4,-4.617091618E-4,1.082190612E-2
5.879949750E0,-7.295127027E-3,5.473159254E-4,2.431775647E-5,7.315669786E-3
5.889969750E0,-1.015070546E-2,-2.177910414E-3,-3.025470942E-4,1.038612776E-2
5.899989750E0,-6.870489568E-3,-9.222300723E-4,1.052735606E-3,7.011589510E-3
5.910010750E0,-7.670996711E-3,-7.323729806E-4,1.208896167E-3,7.800127605E-3
5.920030750E0,-8.129061200E-3,7.419530302E-4,1.897044422E-4,8.165054688E-3
5.930050750E0,-8.468057960E-3,-1.929590711E-3,-2.331455180E-4,8.688249695E-3
5.940071750E0,-7.437414490E-3,-7.524734829E-4,1.297905808E-3,7.587220184E-3
5.950091750E0,-3.801585175E-3,1.121845562E-4,7.314072573E-4,3.872930647E-3
5.960111750E0,-7.167021744E-3,-8.457545191E-4,-8.443851257E-4,7.265981532E-3
5.970132750E0,-6.486925296E-3,4.686014727E-4,-2.922476851E-4,6.510391375E-3
5.980152750E0,-3.617901355E-3,6.643438246E-4,-8.057051455E-4,3.765597391E-3
5.990172750E0,-3.645651974E-3,-3.265521955E-4,-2.920660889E-3,4.682699508E-3
6.000192750E0,-3.995325416E-3,1.526209060E-3,-1.850619738E-4,4.280909624E-3
6.010213750E0,-7.366645150E-3,-2.705403371E-3,1.140600070E-3,7.930172551E-3
6.020233750E0,-4.578315653E-3,-1.971968682E-3,-1.894021989E-5,4.984976774E-3
6.030253750E0,-5.651572719E-3,-2.833083970E-3,1.269329659E-4,6.323191517E-3
6.040274750E0,-8.498491719E-3,-6.846734323E-3,-3.614275716E-3,1.149630903E-2
6.050294750E0,-2.948178910E-3,-6.571265869E-3,-7.745037321E-3,1.057633666E-2
6.060314750E0,4.253807478E-3,-3.280663863E-3,-8.714693598E-3,1.023735893E-2
6.070335750E0,1.304227114E-2,-8.113840595E-4,-9.752182290E-3,1.630534391E-2
6.080355750E0,1.431313157E-2,-6.063887849E-5,-1.456984039E-2,2.042424201E-2
6.090375750E0,1.649798080E-2,6.557253655E-4,-1.500075962E-2,2.230775954E-2
6.100396750E0,2.471702918E-2,3.922358621E-3,-1.582926884E-2,2.961219649E-2
6.110416750E0,2.820184454E-2,2.766655525E-3,-1.771194302E-2,3.341723124E-2
6.120436750E0,3.068284318E-2,6.819330156E-4,-1.567915268E-2,3.446357101E-2
6.130457750E0,2.488515712E-2,-1.346857753E-3,-1.564422622E-2,2.942493645E-2
6.140477750E0,2.330537140E-2,-4.640200641E-4,-1.394193247E-2,2.716124319E-2
6.150497750E0,2.547102980E-2,-1.539944671E-3,-1.072196476E-2,2.767860757E-2
6.160518750E0,2.584440634E-2,-4.944795743E-3,-8.211136796E-3,2.756459888E-2
6.170538750E0,2.606177703E-2,-3.424644703E-3,-5.831972696E-3,2.692501288E-2
6.180558750E0,2.136582509E-2,-2.402523765E-3,-6.186439656E-3,2.237281023E-2
6.190578750E0,2.107131667E-2,-5.893917289E-3,-3.820917802E-3,2.221121474E-2
6.200599750E0,2.166227251E-2,-3.436085768E-3,8.412121679E-4,2.194922262E-2
6.210619750E0,2.456125803E-2,5.093445070E-4,1.667225966E-3,2.462304755E-2
6.220639750E0,2.231115289E-2,2.467034152E-3,2.147380146E-4,2.244816058E-2
6.230660750E0,2.229231969E-2,2.808743389E-3,1.927618519E-3,2.255110351E-2
6.240680750E0,2.016498521E-2,2.601283137E-3,7.453944068E-3,2.165535926E-2
6.250700750E0,1.946792379E-2,-3.954661079E-3,5.539629143E-3,2.062345490E-2
6.260721750E0,1.609396376E-2,-1.720801229E-3,7.524482906E-3,1.784922041E-2
6.270741750E0,1.599840261E-2,2.353319665E-3,7.555495482E-3,1.784859971E-2
6.280761750E0,1.389850024E-2,-1.898683375E-3,5.946413148E-3,1.523591602E-2
6.290782750E0,1.412732527E-2,-3.447080962E-4,6.055763923E-3,1.537440794E-2
6.300802750E0,1.274621021E-2,-3.245156724E-3,7.782823872E-3,1.528297302E-2
6.310822750E0,1.260231622E-2,-2.059013816E-3,7.419081405E-3,1.476823215E-2
6.320843750E0,1.582846977E-2,-8.805652615E-4,5.168177653E-3,1.667410899E-2
6.330863750E0,1.357812248E-2,-3.279508092E-4,4.207901657E-3,1.421898021E-2
6.340883750E0,9.878724813E-3,2.361841733E-3,5.556526594E-3,1.157767196E-2
6.350903750E0,1.140319277E-2,2.200213261E-3,2.531111240E-3,1.188613763E-2
6.360924750E0,8.105400950E-3,1.427363954E-3,6.304544397E-3,1.036736092E-2
6.370944750E0,2.702516504E-3,2.065249719E-4,1.666307449E-3,3.181639284E-3
6.380964750E0,2.566695213E-3,-1.688313903E-3,2.977648051E-3,4.278401112E-3
6.390985750E0,8.311588317E-5,-1.208647154E-3,2.639646642E-3,2.904388161E-3
6.401005750E0,-1.045797952E-3,1.042789081E-3,2.382742387E-4,1.495953554E-3
6.411025750E0,-3.359323367E-3,-1.150071155E-3,1.968962140E-3,4.060114415E-3
6.421046750E0,-3.968920559E-3,3.578903852E-3,-4.119037767E-4,5.360088423E-3
6.431066750E0,-2.133473754E-4,7.855084259E-4,1.457861625E-3,1.669700903E-3
6.441086750E0,5.221632309E-3,-2.752767643E-3,-3.952350002E-3,7.103818987E-3
6.451107750E0,9.459558874E-3,-7.516541518E-4,-3.533068346E-3,1.012574985E-2
6.461127750E0,8.098150603E-3,1.542126411E-3,-1.983108697E-3,8.478851170E-3
6.471147750E0,1.108168252E-2,1.227337983E-3,-2.099775244E-3,1.134544411E-2
6.481168750E0,1.523461565E-2,-2.124250168E-3,-3.406055737E-3,1.575459198E-2
6.491188750E0,2.069822885E-2,-4.502410069E-3,-4.293300677E-3,2.161297769E-2
6.501208750E0,2.477739193E-2,-3.286144231E-3,-1.106828451E-3,2.501885217E-2
6.511229750E0,2.773659676E-2,-6.347312592E-4,-3.198228311E-3,2.792759116E-2
6.521249750E0,3.051374108E-2,6.478470750E-4,-1.454923186E-3,3.055527617E-2
6.531269750E0,2.622045949E-2,-5.838647485E-4,-7.161623216E-4,2.623673536E-2
6.541289750E0,2.338312566E-2,-2.424474806E-4,-2.309265081E-3,2.349812869E-2
6.551310750E0,2.302809805E-2,-4.664296284E-4,-4.841745831E-3,2.353621378E-2
6.561330750E0,2.044216916E-2,-1.558858203E-3,-4.349060822E-3,2.095773482E-2
6.571351625E0,1.689354330E-2,9.724890115E-4,-4.673865624E-3,1.755512917E-2
6.581372625E0,1.369428821E-2,2.217783127E-3,-6.149522960E-3,1.517460788E-2
6.591392625E0,1.004168019E-2,7.902993821E-4,-3.486050293E-3,1.065891461E-2
6.601412625E0,6.696749479E-3,-3.567697713E-3,-4.929483868E-3,9.048465713E-3
6.611433625E0,4.079418257E-3,-1.978847198E-3,-5.955273286E-3,7.484835967E-3
6.621453625E0,8.152723312E-3,-1.324773766E-4,-4.811978433E-3,9.467818339E-3
6.631473625E0,3.783125430E-3,-1.811746042E-4,-6.615147460E-3,7.622666081E-3
6.641494625E0,8.102389984E-4,1.334963017E-3,-6.460417993E-3,6.646473813E-3
6.651514625E0,-2.965907566E-3,1.821511541E-3,-7.007840089E-3,7.824598054E-3
6.661534625E0,-1.007685438E-3,1.761057763E-3,-7.878160104E-3,8.135241915E-3
6.671555625E0,-4.807953723E-3,-1.457979437E-3,-7.903978229E-3,9.365628376E-3
6.681575625E0,-5.748848431E-3,-1.769569237E-3,-5.171841476E-3,7.932753483E-3
6.691595625E0,-7.003244944E-3,-1.605699072E-3,-3.910010681E-3,8.179968996E-3
6.701616625E0,-7.636544295E-3,-2.209171420E-3,-3.313994734E-3,8.612770067E-3
6.711636625E0,-7.865384221E-3,-4.275273066E-3,-6.226096768E-3,1.090442615E-2
6.721656625E0,-1.005849801E-2,-8.524879813E-3,-2.397270175E-3,1.340126346E-2
6.731676625E0,-9.009368718E-3,-4.281362519E-3,-4.423365928E-3,1.091168895E-2
6.741697625E0,-7.889242843E-3,-2.720749704E-3,-1.630508807E-3,8.503010676E-3
6.751717625E0,-8.774123155E-3,1.229007146E-3,-4.593805410E-3,9.979917026E-3
6.761737625E0,-5.204687826E-3,1.214093412E-3,-5.799418315E-3,7.886447298E-3
6.771758625E0,-7.265359163E-3,8.878029184E-4,-5.336561240E-3,9.058284808E-3
6.781778625E0,-4.356655292E-3,-6.061449181E-3,-6.732856389E-3,1.005251047E-2
6.791798625E0,-3.654401749E-3,-5.459583364E-3,-9.792888537E-3,1.179247084E-2
6.801819625E0,-2.810445614E-3,-8.786800317E-4,-1.060781628E-2,1.100892589E-2
6.811839625E0,-3.033078276E-3,-1.793312840E-4,-1.129196212E-2,1.169359363E-2
6.821859625E0,-2.674883232E-3,1.096215565E-4,-1.120594237E-2,1.152129166E-2
6.831880625E0,-5.408106372E-4,2.283853944E-3,-1.186352037E-2,1.209345197E-2
6.841900625E0,-9.260047227E-5,1.542163664E-3,-1.062728092E-2,1.073899173E-2
6.851920625E0,2.741985954E-3,8.947214810E-4,-7.429579273E-3,7.969796840E-3
6.861941625E0,5.817936733E-3,5.791368894E-4,-1.130634360E-2,1.272859745E-2
6.871961625E0,4.615175538E-3,3.857617266E-4,-5.762106739E-3,7.392599774E-3
6.881981625E0,3.910236526E-3,9.809781332E-4,-4.453429487E-3,6.007104293E-3
6.892002625E0,1.565926708E-3,1.362506300E-4,-2.810346661E-3,3.220052646E-3
6.902022625E0,6.532613188E-4,-2.904280322E-3,-3.380795708E-3,4.504594783E-3
6.912042625E0,6.448212080E-4,-1.926339464E-3,-2.154068789E-4,2.042786882E-3
6.922063625E0,-1.146420836E-3,-2.097314456E-3,1.444807742E-3,2.792933596E-3
6.932083625E0,-2.138352022E-3,-1.439043088E-3,2.608967712E-3,3.667438738E-3
6.942103625E0,1.341334544E-3,-1.716448460E-4,2.190052532E-3,2.573901786E-3
6.952123625E0,-2.617487684E-3,-1.542293001E-3,3.520925995E-3,4.650465497E-3
6.962144625E0,-4.695818760E-3,2.683901694E-4,6.829370745E-3,8.292348996E-3
6.972164625E0,-4.620338790E-3,1.795397140E-3,9.069461375E-3,1.033567178E-2
6.982184625E0,-4.776399583E-3,1.264362945E-3,7.048922125E-3,8.608130445E-3
6.992205625E0,-7.278713398E-3,-2.543694340E-3,1.010221615E-2,1.270845470E-2
7.002225625E0,-7.847032510E-3,-1.832896378E-3,8.165298961E-3,1.147203275E-2
7.012245625E0,-1.193564199E-2,8.196290582E-5,1.055587083E-2,1.593401006E-2
7.022266625E0,-1.311355829E-2,-2.837394364E-3,9.816044942E-3,1.662440845E-2
7.032286625E0,-1.091209520E-2,1.213189680E-4,1.044754870E-2,1.510760781E-2
7.042306625E0,-7.163696922E-3,2.571427263E-3,9.911187924E-3,1.249649702E-2
7.052327625E0,-5.598775111E-3,2.475706860E-4,1.054114476E-2,1.193831256E-2
7.062347625E0,-7.589221932E-3,1.982886577E-3,9.724619798E-3,1.249385285E-2
7.072367625E0,-8.047946729E-3,5.023728125E-3,9.750572033E-3,1.360444581E-2
7.082388625E0,-1.070471574E-2,1.146964729E-3,1.183156576E-2,1.599663763E-2
7.092408625E0,-7.071534172E-3,2.953330753E-3,1.334723830E-2,1.539082611E-2
7.102428625E0,-8.332009427E-3,9.735696949E-5,1.192883868E-2,1.455091240E-2
7.112449625E0,-7.171830162E-3,1.683040173E-3,1.360930782E-2,1.547517468E-2
7.122469625E0,-9.077321738E-3,1.432436751E-3,1.124175731E-2,1.451987439E-2
7.132489625E0,-8.170346729E-3,1.060891547E-3,1.248119865E-2,1.495527921E-2
7.142510625E0,-8.381535299E-3,3.422316629E-3,1.436218899E-2,1.697748090E-2
7.152530625E0,-8.399052545E-3,3.117406741E-3,1.310826652E-2,1.587730958E-2
7.162550625E0,-7.515948266E-3,5.527825560E-4,1.316073071E-2,1.516574692E-2
7.172570625E0,-8.138291538E-3,1.773055061E-3,1.363194454E-2,1.597515025E-2
7.182591625E0,-9.653363377E-3,3.741397522E-3,1.321223006E-2,1.678536574E-2
7.192611625E0,-9.595381096E-3,7.008407265E-4,1.117604226E-2,1.474674326E-2
7.202631625E0,-8.838510141E-3,2.550139790E-3,1.067110710E-2,1.408882540E-2
7.212652625E0,-5.918459035E-3,-1.131188124E-3,1.220775954E-2,1.361385827E-2
7.222672625E0,-5.405800417E-3,2.286217641E-4,1.094249170E-2,1.220709100E-2
7.232692625E0,-5.416525528E-3,2.204491757E-3,6.906971335E-3,9.050126282E-3
7.242713625E0,-6.410683505E-3,4.550612066E-4,8.067310788E-3,1.031433212E-2
7.252733625E0,-4.164726473E-3,1.304022851E-3,9.233374149E-3,1.021276752E-2
7.262753625E0,-4.167922772E-3,-1.001209486E-3,8.014711551E-3,9.088982447E-3
7.272774625E0,-1.967473887E-3,-3.856332274E-3,6.954887882E-3,8.192235199E-3
7.282794625E0,-1.884819940E-4,-2.888273215E-3,3.875741269E-3,4.837253148E-3
7.292814625E0,-7.444154471E-5,2.085196320E-3,3.389345016E-3,3.980106139E-3
7.302835625E0,-2.570636570E-5,1.937923604E-3,4.462865647E-3,4.865529621E-3
7.312855625E0,1.163835172E-3,6.249565631E-4,4.333703779E-3,4.530570765E-3
7.322875625E0,2.822984476E-3,-9.716085624E-4,3.044201061E-3,4.263850918E-3
7.332896625E0,3.563379403E-3,-3.585009836E-3,2.367060399E-3,5.581482171E-3
7.342916625E0,7.992482744E-3,-4.462080542E-4,2.314862562E-3,8.332914900E-3
7.352936625E0,6.145431660E-3,4.499810748E-4,-2.712569665E-3,6.732521626E-3
7.362957625E0,9.070647880E-3,1.548002358E-3,-3.036143724E-3,9.689743701E-3
7.372977625E0,9.213785641E-3,1.467270427E-3,-5.341520067E-3,1.075074718E-2
7.382997625E0,1.085615717E-2,-1.782052219E-3,-2.409646288E-3,1.126224906E-2
7.393017625E0,1.247252338E-2,2.071561990E-3,-5.268017761E-3,1.369697848E-2
7.403038625E0,1.357427239E-2,-2.946632681E-3,-6.710918155E-3,1.542659838E-2
7.413058625E0,1.444116514E-2,-2.500819508E-3,-9.613393806E-3,1.752765499E-2
7.423078625E0,1.377777196E-2,-2.518662717E-3,-8.003513329E-3,1.613154945E-2
7.433099625E0,1.376100257E-2,-4.232496955E-3,-9.267891757E-3,1.712229657E-2
7.443119625E0,2.118775994E-2,-2.632735996E-3,-1.038082689E-2,2.374055679E-2
7.453139625E0,1.954517141E-2,-2.194628585E-3,-1.373176370E-2,2.398731861E-2
7.463160625E0,2.320195735E-2,-3.618088085E-3,-1.242335234E-2,2.656616399E-2
7.473180625E0,2.551054582E-2,1.858225558E-3,-1.373344846E-2,2.903185418E-2
7.483200625E0,2.357922122E-2,2.030709293E-4,-1.369749568E-2,2.726980563E-2
7.493221625E0,2.878258750E-2,-1.439973712E-4,-1.414993964E-2,3.207302403E-2
7.503241625E0,2.823504061E-2,-6.955380086E-4,-1.328734122E-2,3.121305381E-2
7.513261625E0,3.032579459E-2,-7.769672666E-4,-1.363947988E-2,3.326098175E-2
7.523282625E0,3.171596676E-2,4.795121495E-4,-1.207673736E-2,3.394083182E-2
7.533302625E0,3.253337741E-2,-2.815322485E-3,-1.325811259E-2,3.524378294E-2
7.543322625E0,3.534753621E-2,-6.427709013E-5,-1.144157071E-2,3.715322311E-2
7.553343625E0,3.467627615E-2,8.579419227E-4,-6.870687008E-3,3.536080502E-2
7.563363625E0,3.450876474E-2,-1.097883563E-3,-1.090617478E-2,3.620780083E-2
7.573382875E0,3.400094807E-2,-3.971802071E-4,-8.354457095E-3,3.501455662E-2
7.583403875E0,3.228534013E-2,2.706467640E-3,-8.795742877E-3,3.357131584E-2
7.593423875E0,3.522712737E-2,2.768947743E-4,-7.524697576E-3,3.602288505E-2
7.603443875E0,3.497652709E-2,-2.161229029E-3,-8.184894919E-3,3.598639831E-2
7.613463875E0,3.361556679E-2,-2.877361840E-3,-6.254616659E-3,3.431334684E-2
7.625289042E0,8.239255100E-2,-2.900573658E-3,1.067850273E-3,8.245050693E-2
7.635309042E0,9.143960476E-2,-1.811672933E-3,3.198503749E-3,9.151346296E-2
7.645330042E0,9.667538106E-2,-3.152574878E-3,1.850677887E-3,9.674447292E-2
7.655350042E0,1.028838009E-1,-1.755666686E-3,3.997878637E-3,1.029764142E-1
7.665370042E0,1.075792238E-1,-2.796696266E-3,3.313979134E-3,1.076665842E-1
7.675391042E0,1.135599241E-1,1.007209066E-3,-7.317381096E-5,1.135644142E-1
7.685411042E0,1.208599210E-1,1.707354095E-3,-1.901700161E-3,1.208869390E-1
7.695431042E0,1.268530339E-1,3.260736819E-3,-3.105611075E-3,1.269329328E-1
7.705452042E0,1.321996003E-1,2.239148133E-3,-5.653457250E-3,1.323393732E-1
7.715472042E0,1.326465160E-1,8.139554411E-4,-8.119442500E-3,1.328972764E-1
7.725492042E0,1.358271241E-1,3.896564245E-3,-8.540222421E-3,1.361511155E-1
7.735513042E0,1.354507059E-1,1.754705608E-2,-1.246335916E-2,1.371500209E-1
7.745533042E0,1.413820982E-1,-1.106141787E-2,-1.243353169E-2,1.423581588E-1
7.755553042E0,1.413859874E-1,3.004403785E-3,-1.265923213E-2,1.419833794E-1
7.765574042E0,1.456771344E-1,3.032633336E-3,-1.655144244E-2,1.466457452E-1
7.775594042E0,1.489887238E-1,8.303811774E-3,-1.268174499E-2,1.497578704E-1
7.785614042E0,1.561877728E-1,4.279509187E-3,-1.657049172E-2,1.571226137E-1
7.795634042E0,1.557119936E-1,1.431558630E-3,-1.286198013E-2,1.562488555E-1
7.805655042E0,1.592372209E-1,-3.313928144E-3,-1.158739161E-2,1.596926494E-1
7.815675833E0,1.658204645E-1,1.729539828E-3,-1.610810682E-2,1.666099903E-1
7.825695833E0,1.666114181E-1,1.481333165E-3,-1.622395590E-2,1.674060206E-1
7.835716833E0,1.687818766E-1,3.673376516E-3,-1.759685576E-2,1.697364571E-1
7.845736833E0,1.700857580E-1,-1.240155892E-3,-1.676195487E-2,1.709142071E-1
7.855756833E0,1.745435148E-1,-3.912063316E-3,-1.857937500E-2,1.755731642E-1
7.865777833E0,1.837897450E-1,-4.916074686E-3,-1.545122545E-2,1.845036003E-1
7.875797833E0,1.855840087E-1,-1.716864295E-3,-1.339414064E-2,1.860746488E-1
7.885817833E0,1.879563630E-1,4.517329857E-3,-1.453903317E-2,1.885719601E-1
7.895838833E0,1.880269796E-1,2.130350098E-3,-1.217910554E-2,1.884330492E-1
7.905858833E0,1.909380853E-1,4.106415901E-3,-1.369790547E-2,1.914728380E-1
7.915878833E0,1.897905022E-1,1.063219272E-3,-1.220149640E-2,1.901852825E-1
7.925899833E0,1.914746910E-1,-3.179995110E-3,-1.393361576E-2,1.920073314E-1
7.935919833E0,1.907836497E-1,-6.873784587E-3,-1.328019891E-2,1.913687895E-1
7.945939833E0,1.932809055E-1,-6.330500357E-3,-1.663418487E-2,1.940986341E-1
7.955960833E0,1.989973783E-1,-5.991211161E-3,-1.492920797E-2,1.996465188E-1
7.965980833E0,2.019995600E-1,-3.809816204E-3,-1.546210703E-2,2.026262907E-1
7.976000833E0,2.117680758E-1,7.287552580E-4,-1.675918698E-2,2.124314463E-1
7.986021833E0,2.172680497E-1,-1.062220428E-3,-1.920929551E-2,2.181181578E-1
7.996041833E0,2.166828215E-1,2.783809323E-4,-1.840377226E-2,2.174631497E-1
8.006061833E0,2.198394686E-1,-2.511013998E-3,-1.543035265E-2,2.203946300E-1
8.016082833E0,2.219457030E-1,-1.546171494E-3,-1.574130543E-2,2.225085941E-1
8.026102833E0,2.314284295E-1,-4.148878623E-3,-1.437776722E-2,2.319117318E-1
8.036122833E0,2.373865992E-1,1.037408714E-3,-1.492595114E-2,2.378576417E-1
8.046143833E0,2.427589893E-1,3.146632342E-3,-1.139326766E-2,2.430465691E-1
8.056163833E0,2.437946349E-1,3.327707527E-3,-1.637385041E-2,2.443665293E-1
8.066183833E0,2.463965416E-1,-1.251864480E-3,-1.696027815E-2,2.469827401E-1
8.076203833E0,2.471284270E-1,-4.435925279E-3,-1.501869038E-2,2.476241061E-1
8.086224833E0,2.500895858E-1,-1.405248418E-3,-1.719795540E-2,2.506841545E-1
8.096244833E0,2.551081181E-1,-6.629636511E-3,-1.890956052E-2,2.558938754E-1
8.106264833E0,2.554050684E-1,-7.086101919E-3,-1.997029781E-2,2.562826069E-1
8.116285833E0,2.633414268E-1,-4.373089410E-3,-2.650051937E-2,2.647075906E-1
8.126305833E0,2.712856531E-1,-9.077838622E-4,-2.708082274E-2,2.726354720E-1
8.136325833E0,2.763663232E-1,1.767597394E-3,-2.748613246E-2,2.777354073E-1
8.146346833E0,2.845001519E-1,5.329575390E-3,-2.239123918E-2,2.854296908E-1
8.156366833E0,2.872020304E-1,4.549030680E-3,-2.238062955E-2,2.881086471E-1
8.166386833E0,2.876291871E-1,3.270979738E-3,-2.224054746E-2,2.885063094E-1
8.176407833E0,2.891522050E-1,1.037100446E-3,-1.858871803E-2,2.897509511E-1
8.186427833E0,2.919762135E-1,-2.061221283E-3,-1.619533449E-2,2.924322942E-1
8.196447833E0,2.956257761E-1,-3.533422016E-3,-1.495966781E-2,2.960251276E-1
8.206468833E0,2.998780608E-1,-5.641314201E-3,-1.578791067E-2,3.003463566E-1
8.216488833E0,3.063943386E-1,-4.909723066E-3,-1.214587595E-2,3.066742872E-1
8.226508833E0,3.128834069E-1,-2.794640372E-3,-1.292724721E-2,3.131628171E-1
8.236529833E0,3.188415170E-1,-1.475283876E-3,-1.254348736E-2,3.190915676E-1
8.246549833E0,3.271617591E-1,-5.299849436E-3,-1.346360892E-2,3.274815626E-1
8.256569833E0,3.330518305E-1,4.019651096E-4,-1.315376069E-2,3.333117232E-1
8.266590833E0,3.371610940E-1,3.421457252E-3,-1.563263126E-2,3.375406476E-1
8.276610833E0,3.424493372E-1,-8.308102842E-4,-1.457560156E-2,3.427603930E-1
8.286630833E0,3.464486003E-1,7.889242843E-4,-1.697004959E-2,3.468648694E-1
8.296651833E0,3.511384428E-1,6.142251659E-4,-1.495079976E-2,3.514571235E-1
8.306671833E0,3.563891351E-1,1.314370194E-3,-1.756708883E-2,3.568242506E-1
8.316691833E0,3.624331653E-1,3.460607491E-3,-1.905610412E-2,3.629502862E-1
8.326711833E0,3.602674901E-1,3.586575156E-3,-2.036078647E-2,3.608602078E-1
8.336732833E0,3.570959270E-1,3.649161430E-3,-2.102202922E-2,3.577327818E-1
8.346752833E0,3.537480533E-1,-9.184260853E-4,-1.991974749E-2,3.543096457E-1
8.356772833E0,3.537472188E-1,-4.733954556E-3,-2.002936602E-2,3.543454256E-1
8.366793833E0,3.544348478E-1,-6.771805696E-3,-2.497086115E-2,3.553779152E-1
8.376813833E0,3.534146249E-1,-2.999422373E-3,-2.683519758E-2,3.544446663E-1
8.386833833E0,3.504619896E-1,3.857418429E-3,-2.767196298E-2,3.515739231E-1
8.396854833E0,3.466663063E-1,3.245640080E-3,-2.760578692E-2,3.477788687E-1
8.406874833E0,3.409173489E-1,3.729802789E-3,-2.751790360E-2,3.420464664E-1
8.416894833E0,3.328584731E-1,2.423295518E-3,-3.085188009E-2,3.342939933E-1
8.426915833E0,3.283404112E-1,-4.572095349E-5,-2.886809036E-2,3.296070302E-1
8.436935833E0,3.201868236E-1,-1.850165427E-4,-2.637414075E-2,3.212712741E-1
8.446955833E0,3.091027439E-1,-2.961362014E-3,-2.855766751E-2,3.104332719E-1
8.456976833E0,3.025037348E-1,-6.503893062E-3,-2.908839472E-2,3.039686578E-1
8.466996833E0,2.944660485E-1,-7.492724806E-3,-2.861382067E-2,2.959478761E-1
8.477016833E0,2.910444736E-1,-7.890583947E-3,-2.965229005E-2,2.926574880E-1
8.487037833E0,2.867413461E-1,-5.223694257E-3,-2.899262495E-2,2.882506875E-1
8.497057833E0,2.831721902E-1,-5.220220424E-3,-2.945589088E-2,2.847479403E-1
8.507077833E0,2.711847723E-1,-1.354909036E-3,-3.060131706E-2,2.729092470E-1
8.517098833E0,2.670134306E-1,-4.688931629E-3,-2.866452187E-2,2.685885571E-1
8.527118833E0,2.635755539E-1,-6.724651903E-3,-2.849381417E-2,2.651965139E-1
8.537138833E0,2.587453127E-1,-1.098066289E-2,-3.170917183E-2,2.609122139E-1
8.547159833E0,2.549599111E-1,-9.517787956E-3,-2.935972996E-2,2.568212186E-1
8.557179833E0,2.446454167E-1,-1.405029325E-3,-2.530795336E-2,2.459549685E-1
8.567199833E0,2.405689061E-1,1.584635465E-3,-2.643233910E-2,2.420218548E-1
8.577220833E0,2.350524813E-1,-2.617205027E-4,-2.343911305E-2,2.362183936E-1
8.587240833E0,2.316542864E-1,-5.632250570E-3,-2.381834574E-2,2.329436504E-1
8.597260833E0,2.250025719E-1,-7.956106216E-3,-2.394947782E-2,2.264134150E-1
8.607280833E0,2.207931727E-1,-7.441050373E-3,-2.075421810E-2,2.218912615E-1
8.617301833E0,2.139958143E-1,-1.697917003E-3,-2.366210148E-2,2.153067266E-1
8.627321833E0,2.082553804E-1,1.385987271E-4,-2.343386784E-2,2.095697231E-1
8.637341833E0,2.025201917E-1,2.092275303E-3,-2.652174421E-2,2.042601492E-1
8.647362833E0,1.965840161E-1,2.384956926E-3,-2.312488109E-2,1.979538419E-1
8.657382833E0,1.922684163E-1,1.776174759E-3,-2.358835377E-2,1.937181177E-1
8.667402833E0,1.882638186E-1,5.227631424E-3,-2.234865166E-2,1.896577332E-1
8.677423833E0,1.795211434E-1,8.886800148E-3,-2.218529768E-2,1.811049519E-1
8.687443833E0,1.715851873E-1,6.605536677E-3,-1.973572187E-2,1.728427272E-1
8.697463833E0,1.631957442E-1,5.961063318E-3,-2.032735385E-2,1.645648398E-1
8.707484833E0,1.539210081E-1,2.177776303E-3,-1.468571369E-2,1.546353441E-1
8.717504833E0,1.419157088E-1,3.744238522E-3,-5.320277065E-3,1.420647496E-1
8.727524833E0,1.334423423E-1,2.540019341E-5,-5.606567021E-3,1.335600724E-1
8.737545833E0,1.227046847E-1,-2.136835130E-3,2.370788949E-3,1.227461867E-1
8.747565833E0,1.129854769E-1,-4.266298376E-3,4.366029054E-3,1.131502607E-1
8.757585833E0,1.056831554E-1,-3.314199857E-3,8.157755248E-3,1.060493386E-1
8.767606833E0,9.609790891E-2,-1.220688690E-3,1.133490726E-2,9.677178463E-2
8.777626833E0,9.043132514E-2,-1.611962449E-3,1.285057887E-2,9.135403859E-2
8.787646833E0,8.471165597E-2,2.264175564E-4,1.593238860E-2,8.619719792E-2
8.797667833E0,7.814794034E-2,-1.057435526E-3,1.477493253E-2,7.953940772E-2
8.807687042E0,7.333028316E-2,1.114638755E-3,1.756352931E-2,7.541253484E-2
8.817707042E0,7.089377195E-2,3.772478551E-3,1.683255285E-2,7.296227334E-2
8.827728042E0,6.624735892E-2,4.151180387E-3,1.906854287E-2,6.906195906E-2
8.837748042E0,5.565942824E-2,-7.487698458E-4,1.919584163E-2,5.888134631E-2
8.847768042E0,5.195337534E-2,-3.419387853E-3,2.074207179E-2,5.604532955E-2
8.857788042E0,5.024758726E-2,-4.328067414E-3,1.769451424E-2,5.344761948E-2
8.867809042E0,5.161405355E-2,-4.026331473E-3,1.549154799E-2,5.403896676E-2
8.877829042E0,5.193175375E-2,-1.099521061E-3,1.191248465E-2,5.329186885E-2
8.887849042E0,4.827310145E-2,-1.235874835E-3,1.044907793E-2,4.940650706E-2
8.897870042E0,5.129528791E-2,2.820393536E-3,6.395296194E-3,5.176930553E-2
8.907890042E0,4.567548633E-2,3.821209306E-3,6.144426297E-3,4.624506099E-2
8.917910042E0,3.807082027E-2,2.190820407E-3,1.478014980E-3,3.816243675E-2
8.927931042E0,3.694429994E-2,-1.530947164E-3,-9.947300423E-4,3.698938476E-2
8.937951042E0,3.411279619E-2,1.292575616E-4,-1.870479900E-3,3.416428349E-2
8.947971042E0,3.046799451E-2,-1.011108048E-3,-7.007984444E-3,3.127991168E-2
8.957992042E0,2.903947979E-2,1.649458427E-4,-1.079551131E-2,3.098163421E-2
8.968012042E0,2.801869065E-2,-9.503860492E-4,-1.170471404E-2,3.038010187E-2
8.978032042E0,2.431387268E-2,-1.772268210E-3,-1.220804919E-2,2.726429541E-2
8.988053042E0,2.420841157E-2,-3.845006227E-3,-1.336838771E-2,2.792033405E-2
8.998073042E0,2.029070817E-2,-3.423137590E-3,-1.429496612E-2,2.505547376E-2
9.008093042E0,1.624483243E-2,-5.335819907E-3,-1.810142212E-2,2.490034211E-2
9.018114042E0,2.111998014E-2,-4.905996844E-3,-1.743546873E-2,2.782297497E-2
9.028134042E0,2.078761719E-2,-2.603427740E-3,-2.079664357E-2,2.951954011E-2
9.038154042E0,2.210013568E-2,-2.061442239E-3,-2.072947100E-2,3.037065210E-2
9.048175042E0,2.374890074E-2,3.473204561E-5,-2.146503516E-2,3.201186072E-2
9.058195042E0,2.290957421E-2,1.874198439E-3,-2.187695727E-2,3.173267196E-2
9.068215042E0,2.239851281E-2,-1.706954325E-3,-2.086628787E-2,3.065956684E-2
9.078236042E0,1.851447672E-2,-2.052139025E-4,-1.860846579E-2,2.625077065E-2
9.088256042E0,1.699008420E-2,-2.639875747E-3,-1.642653719E-2,2.377946654E-2
9.098276042E0,1.735031977E-2,-6.993369199E-3,-1.695624180E-2,2.524787011E-2
9.108297042E0,1.918230765E-2,-3.607159713E-3,-1.470587123E-2,2.443839554E-2
9.118317042E0,1.944622770E-2,-2.179438947E-3,-1.074122358E-2,2.232217753E-2
9.128337042E0,1.627893001E-2,9.236761834E-4,-5.513172131E-3,1.721196697E-2
9.138358042E0,1.364188921E-2,9.191550780E-4,-3.810551716E-3,1.419388219E-2
9.148378042E0,1.343123242E-2,1.656318083E-3,-2.185224555E-3,1.370826759E-2
9.158398042E0,1.174255088E-2,-2.457991941E-3,-1.423212001E-3,1.208117370E-2
9.168418042E0,1.167144440E-2,-1.937876688E-3,3.288985230E-3,1.227987803E-2
9.178439042E0,1.029840857E-2,1.911665779E-3,5.283472594E-3,1.173144355E-2
9.188459042E0,1.010053605E-2,6.353552453E-3,9.347722866E-3,1.515811268E-2
9.198479042E0,6.059049163E-3,5.884612910E-3,5.928833038E-3,1.031948676E-2
9.208500042E0,1.314627472E-3,1.131027006E-2,1.006711926E-2,1.519859679E-2
9.218520042E0,-3.019818105E-3,1.497454382E-2,1.008265000E-2,1.830344490E-2
9.228540042E0,-1.105563994E-2,2.257973328E-2,4.982430488E-3,2.562998524E-2
9.238561042E0,-2.415401675E-2,4.185112566E-2,-1.435974264E-3,4.834247890E-2
9.248581042E0,-7.045920193E-2,5.618292466E-2,-6.785199512E-3,9.037178261E-2
9.258601042E0,-1.509483606E-1,6.356017292E-2,-7.433069986E-4,1.637860056E-1
9.268622042E0,-2.455118895E-1,3.625984490E-2,2.176582813E-3,2.481846122E-1
9.278642042E0,-3.124613762E-1,-8.702311665E-3,7.535866462E-3,3.126733617E-1
9.288662042E0,-3.469027281E-1,-4.782174900E-2,9.799287654E-3,3.503204939E-1
9.298683042E0,-3.892147243E-1,-4.142483324E-2,9.249119088E-3,3.915222403E-1
9.308703042E0,-4.448428452E-1,-5.769367795E-3,1.192479674E-2,4.450400469E-1
9.318723042E0,-5.197066665E-1,2.823281661E-2,1.771887206E-2,5.207744901E-1
9.328744042E0,-5.857714415E-1,2.558137290E-2,2.438902669E-2,5.868367856E-1
9.338764042E0,-6.340480447E-1,-2.174932742E-3,2.826351672E-2,6.346814001E-1
9.348784042E0,-6.696313024E-1,-2.220323682E-2,3.200685605E-2,6.707633738E-1
9.358805042E0,-7.152624130E-1,-1.597061194E-2,3.732596338E-2,7.164137125E-1
9.368825042E0,-7.739422321E-1,1.527811401E-5,4.102962092E-2,7.750290373E-1
9.378845042E0,-8.334936500E-1,1.008948777E-2,4.867000505E-2,8.349743898E-1
9.388866042E0,-8.728551865E-1,-3.059870098E-3,5.067083985E-2,8.743300712E-1
9.398886042E0,-8.995130658E-1,-1.717061549E-2,5.710120872E-2,9.014871789E-1
9.408906042E0,-9.316009879E-1,-1.484674122E-2,6.223977730E-2,9.337958108E-1
9.418927042E0,-9.742951989E-1,-2.041731030E-3,6.748484820E-2,9.766317157E-1
9.428947042E0,-1.024744868E0,2.687243978E-3,7.363914698E-2,1.027390865E0
9.438967042E0,-1.056597829E0,-2.766916994E-3,7.861891389E-2,1.059522327E0
9.448988042E0,-1.076130509E0,-1.178251579E-2,8.100510389E-2,1.079239328E0
9.459008042E0,-1.099626422E0,-1.114712469E-2,8.465673029E-2,1.102936666E0
9.469028042E0,-1.132610202E0,-1.809816109E-3,8.880194277E-2,1.136087554E0
9.479049042E0,-1.171670318E0,2.230210230E-4,9.489863366E-2,1.175507181E0
9.489069042E0,-1.202519655E0,-8.361678571E-3,9.943959117E-2,1.206653087E0
9.499089042E0,-1.221650004E0,-9.822748601E-3,1.008020416E-1,1.225841046E0
9.509109042E0,-1.231200933E0,-1.440045703E-2,1.033043489E-1,1.235611144E0
9.519130042E0,-1.252360106E0,-2.308860188E-3,1.086510345E-1,1.257066511E0
9.529150042E0,-1.276495337E0,2.494949615E-3,1.104654446E-1,1.281268585E0
9.539170042E0,-1.298530579E0,4.451838322E-3,1.154465973E-1,1.303660001E0
9.549191042E0,-1.306103587E0,-5.090001971E-3,1.144673526E-1,1.311119851E0
9.559211042E0,-1.305906177E0,-7.710263133E-3,1.160852239E-1,1.311078247E0
9.569231042E0,-1.306748509E0,-3.672645194E-3,1.170455590E-1,1.311985068E0
9.579252042E0,-1.313171983E0,1.692427322E-4,1.194040105E-1,1.318589399E0
9.589272042E0,-1.316935062E0,7.950854488E-4,1.196474209E-1,1.322359292E0
9.599292042E0,-1.309723735E0,-4.850280937E-3,1.166737974E-1,1.314919223E0
9.609313042E0,-1.301270604E0,-1.435803156E-2,1.155110598E-1,1.306466281E0
9.619333042E0,-1.289495111E0,-7.672496140E-3,1.145230308E-1,1.294593385E0
9.629353042E0,-1.280920506E0,3.229153808E-3,1.142178327E-1,1.286006797E0
9.639374042E0,-1.270061612E0,7.678803056E-3,1.132757366E-1,1.275126211E0
9.649394042E0,-1.257659078E0,2.408407629E-3,1.108834222E-1,1.262540015E0
9.659414042E0,-1.236876249E0,-4.172542598E-3,1.057977006E-1,1.241399782E0
9.669435042E0,-1.217983484E0,-5.308646709E-3,1.033473238E-1,1.222371719E0
9.679455042E0,-1.197889686E0,-2.194605069E-3,9.831882268E-2,1.201919759E0
9.689475042E0,-1.180493712E0,-1.123215538E-3,9.829831868E-2,1.184579768E0
9.699496042E0,-1.158472419E0,-4.850352649E-3,9.128263593E-2,1.162073316E0
9.709516042E0,-1.130758166E0,-3.087872639E-3,9.015425295E-2,1.134350631E0
9.719536042E0,-1.097706914E0,-7.704681717E-3,8.918076754E-2,1.101350553E0
9.729557042E0,-1.067783952E0,4.923761822E-3,8.200088143E-2,1.070939287E0
9.739577042E0,-1.032108903E0,2.917297650E-3,7.813706249E-2,1.035066519E0
9.749597042E0,-9.979671240E-1,6.052903365E-3,7.437055558E-2,1.000752716E0
9.759618042E0,-9.594632387E-1,-3.753606463E-3,7.465894520E-2,9.623709026E-1
9.769638042E0,-9.185794592E-1,-1.084053889E-3,6.873553991E-2,9.211481816E-1
9.779658042E0,-8.745839000E-1,-2.514467109E-3,6.430317461E-2,8.769482419E-1
9.789679042E0,-8.303173184E-1,-7.117474452E-3,6.102615222E-2,8.325873522E-1
9.799699042E0,-7.847889066E-1,-2.807651879E-3,5.590682104E-2,7.867827422E-1
9.809719583E0,-7.287389636E-1,-8.405616507E-3,5.128543824E-2,7.305897122E-1
9.819739583E0,-6.763308644E-1,-8.789908141E-3,4.843563214E-2,6.781199828E-1
9.829760583E0,-6.256107092E-1,-5.445243791E-3,4.095134884E-2,6.269732236E-1
9.839780583E0,-5.773023367E-1,-1.231604721E-3,3.691993654E-2,5.784830045E-1
9.849800583E0,-5.246939659E-1,-4.632461350E-3,3.139147907E-2,5.256525873E-1
9.859821583E0,-4.773764908E-1,-5.893452093E-3,3.171073645E-2,4.784648551E-1
9.869841583E0,-4.281996191E-1,-1.929208264E-2,2.202801406E-2,4.291996407E-1
9.879861583E0,-3.816789389E-1,-1.345096901E-2,1.918377914E-2,3.823973827E-1
9.889882583E0,-3.272378147E-1,-6.358172745E-3,1.734859496E-2,3.277590387E-1
9.899902583E0,-2.744301260E-1,-3.775421064E-4,1.480303891E-2,2.748293407E-1
9.909922583E0,-2.185032070E-1,-8.239459246E-3,1.258835476E-2,2.190205625E-1
9.919943583E0,-1.631516665E-1,-1.044851821E-2,6.231025793E-3,1.636045950E-1
9.929963583E0,-1.136008874E-1,-5.234315060E-3,5.157771986E-3,1.138383164E-1
9.939983583E0,-5.837758631E-2,-4.385033157E-3,9.366613813E-4,5.854953828E-2
9.950004583E0,-3.498089500E-3,2.938393503E-3,-3.623735625E-3,5.831144520E-3
9.960024583E0,5.423647910E-2,4.460634198E-3,-6.225690246E-3,5.477455743E-2
9.970044583E0,1.150534973E-1,5.133614875E-3,-9.953050874E-3,1.155972511E-1
9.980065583E0,1.730253100E-1,-3.535215510E-3,-1.624093018E-2,1.738218153E-1
9.990085583E0,2.307501137E-1,-4.315255210E-3,-2.296701074E-2,2.319304206E-1
1.000010558E1,2.876156867E-1,-9.469159413E-4,-2.772700787E-2,2.889506304E-1
1.001012658E1,3.375648558E-1,6.694952026E-5,-2.948469482E-2,3.388500901E-1
1.002014658E1,3.932506144E-1,-3.607254475E-4,-3.766042739E-2,3.950499761E-1
1.003016658E1,4.399195910E-1,-1.792707248E-3,-4.372124746E-2,4.420904973E-1
1.004018758E1,4.976469874E-1,-3.494212171E-3,-4.583707452E-2,4.997657161E-1
1.005020758E1,5.420269966E-1,-4.421524704E-3,-5.085127428E-2,5.444250794E-1
1.006022758E1,5.958909988E-1,6.164541934E-3,-5.239242315E-2,5.982215727E-1
1.007024858E1,6.432958245E-1,5.541895051E-3,-5.665934086E-2,6.458099654E-1
1.008026858E1,6.789802909E-1,1.954081468E-3,-6.120806187E-2,6.817363718E-1
1.009028858E1,7.265760303E-1,-8.642902598E-3,-6.746249646E-2,7.297524347E-1
1.010030958E1,7.713834047E-1,-2.409259789E-3,-6.747657061E-2,7.743327768E-1
1.011032958E1,8.124392629E-1,-3.257476725E-3,-7.031283528E-2,8.154827170E-1
1.012034958E1,8.497079611E-1,-2.876650309E-3,-7.269643247E-2,8.528169004E-1
1.013037058E1,8.899909854E-1,-5.871375091E-3,-7.640781254E-2,8.932841546E-1
1.014039058E1,9.290979505E-1,-1.614563400E-3,-8.076190948E-2,9.326028599E-1
1.015041058E1,9.660631418E-1,-3.089688485E-3,-8.183117211E-2,9.695276587E-1
1.016043158E1,9.997008443E-1,-4.181301221E-3,-8.903983235E-2,1.003666953E0
1.017045158E1,1.033675909E0,-1.795641612E-3,-9.381541610E-2,1.037926029E0
1.018047158E1,1.063662529E0,-6.190396845E-3,-9.416119754E-2,1.067840170E0
1.019049158E1,1.092291236E0,-7.551005110E-3,-9.883344918E-2,1.096779473E0
1.020051258E1,1.114105940E0,-4.643892404E-3,-1.004552096E-1,1.118635267E0
1.021053258E1,1.134960890E0,-3.361314069E-3,-1.060198843E-1,1.139906898E0
1.022055258E1,1.156175256E0,-4.695566371E-3,-1.088448390E-1,1.161296891E0
1.023057358E1,1.168415427E0,7.444724906E-4,-1.115159914E-1,1.173725258E0
1.024059358E1,1.180021524E0,1.015979890E-2,-1.098098755E-1,1.185163376E0
1.025061358E1,1.192580700E0,1.127433125E-2,-1.053778455E-1,1.197280388E0
1.026063458E1,1.203336716E0,1.252523344E-2,-1.073374748E-1,1.208179402E0
1.027065458E1,1.216260791E0,1.086262148E-2,-1.033267528E-1,1.220690266E0
1.028067458E1,1.216014981E0,1.345199812E-2,-1.053075343E-1,1.220640433E0
1.029069558E1,1.216759801E0,1.303095277E-2,-1.061464325E-1,1.221450484E0
1.030071558E1,1.226434231E0,7.740316913E-3,-1.058660001E-1,1.231019271E0
1.031073558E1,1.228295803E0,9.352594614E-3,-1.032931209E-1,1.232666832E0
1.032075658E1,1.227710247E0,8.180281147E-3,-1.016258523E-1,1.231936355E0
1.033077658E1,1.211796522E0,3.494449425E-3,-9.836854041E-2,1.215787560E0
1.034079658E1,1.197213650E0,1.270734612E-2,-9.788773954E-2,1.201275992E0
1.035081758E1,1.185081959E0,2.176528983E-2,-9.725550562E-2,1.189265156E0
1.036083758E1,1.177510619E0,2.897500806E-2,-9.460853040E-2,1.181660520E0
1.037085758E1,1.166781187E0,2.962455340E-2,-9.383434802E-2,1.170923071E0
1.038087858E1,1.148370743E0,2.210569195E-2,-9.174539894E-2,1.152241833E0
1.039089858E1,1.130130291E0,1.635566168E-2,-9.061595052E-2,1.133875316E0
1.040091858E1,1.118019104E0,1.149937510E-2,-9.043556452E-2,1.121729711E0
1.041093958E1,1.102059603E0,1.314733922E-2,-8.758305013E-2,1.105612505E0
1.042095958E1,1.079422712E0,1.249271818E-2,-8.323749155E-2,1.082699377E0
1.043097958E1,1.048215270E0,8.553370833E-3,-8.510410041E-2,1.051699159E0
1.044100058E1,1.019968748E0,6.956281140E-3,-8.087278903E-2,1.023193552E0
1.045102058E1,9.823734164E-1,8.041786030E-3,-7.865597308E-2,9.855500808E-1
1.046104058E1,9.519950151E-1,1.043783315E-2,-7.184624672E-2,9.547593102E-1
1.047106158E1,9.104076028E-1,2.468574420E-2,-6.792207807E-2,9.132714809E-1
1.048108158E1,8.735923767E-1,2.235522121E-2,-6.893397868E-2,8.765930013E-1
1.049110158E1,8.341728449E-1,1.284187660E-2,-6.283427030E-2,8.366345645E-1
1.050112258E1,7.924931049E-1,6.022543646E-3,-6.081416085E-2,7.948458684E-1
1.051114258E1,7.727055550E-1,-1.640926301E-2,-6.091962010E-2,7.752769432E-1
1.052116258E1,7.257823944E-1,-1.810325682E-2,-5.895193294E-2,7.283976540E-1
1.053118358E1,6.837100387E-1,-1.754186302E-2,-5.725363642E-2,6.863272636E-1
1.054120358E1,6.438540220E-1,8.471366949E-3,-5.426923931E-2,6.461926308E-1
1.055122358E1,6.020775437E-1,1.513219904E-2,-4.972987995E-2,6.043173116E-1
1.056124358E1,5.499492884E-1,1.485867240E-2,-4.893834889E-2,5.523223352E-1
1.057126458E1,5.103435516E-1,-3.184243571E-3,-4.447968677E-2,5.122881246E-1
1.058128458E1,4.632538259E-1,-1.149314689E-3,-4.008991271E-2,4.649866979E-1
1.059130458E1,4.126305878E-1,3.517076373E-3,-3.702408075E-2,4.143032155E-1
1.060132558E1,3.594289124E-1,8.407976478E-3,-3.195176646E-2,3.609442513E-1
1.061134558E1,3.042593896E-1,2.841171110E-3,-2.511782758E-2,3.053076378E-1
1.062136558E1,2.549658716E-1,-1.222544815E-3,-2.106447518E-2,2.558374531E-1
1.063138658E1,2.049269527E-1,-7.552878466E-3,-1.734537072E-2,2.057983572E-1
1.064140658E1,1.539375931E-1,-1.290354412E-4,-1.404228806E-2,1.545767935E-1
1.065142658E1,9.718244523E-2,6.413552444E-3,-7.471204270E-3,9.767998878E-2
1.066144758E1,4.162494838E-2,4.869122989E-3,-9.865537286E-4,4.192037661E-2
1.067146758E1,-9.077373892E-3,2.369746333E-3,2.332011238E-3,9.667093197E-3
1.068148758E1,-6.091079116E-2,-2.916809171E-5,8.754349314E-3,6.153668794E-2
1.069150858E1,-1.131859794E-1,1.742972527E-4,8.047546260E-3,1.134718437E-1
1.070152858E1,-1.634854227E-1,6.069456693E-3,1.328923739E-2,1.641369111E-1
1.071154858E1,-2.136633694E-1,5.175699480E-3,1.949067414E-2,2.146129299E-1
1.072156958E1,-2.576154172E-1,2.260064241E-3,2.331862040E-2,2.586785054E-1
1.073158958E1,-3.108924925E-1,-4.108352587E-3,2.730590478E-2,3.121163772E-1
1.074160958E1,-3.551353216E-1,-5.185601301E-3,3.259201348E-2,3.566654265E-1
1.075163058E1,-4.089543521E-1,-4.089556169E-4,3.594813123E-2,4.105314818E-1
1.076165058E1,-4.507280588E-1,-2.821707167E-4,4.419539124E-2,4.528897164E-1
1.077167058E1,-4.943277538E-1,1.900077332E-4,4.487556219E-2,4.963605346E-1
1.078169158E1,-5.413715243E-1,-7.472536527E-5,4.918940738E-2,5.436016287E-1
1.079171158E1,-5.880183578E-1,-5.580889992E-4,5.902552605E-2,5.909736993E-1
1.080173158E1,-6.298069954E-1,-4.310725257E-3,6.035990268E-2,6.327074772E-1
1.081175254E1,-6.753345132E-1,-5.499560386E-3,6.522336602E-2,6.784991064E-1
1.082177254E1,-7.139053941E-1,-5.847910419E-3,6.861101091E-2,7.172186421E-1
1.083179254E1,-7.517124414E-1,-4.643095657E-3,7.353865355E-2,7.553152233E-1
1.084181354E1,-7.939561009E-1,-8.353276644E-4,7.464998215E-2,7.974582170E-1
1.085183354E1,-8.311407566E-1,1.088007120E-3,8.051559329E-2,8.350322759E-1
1.086185354E1,-8.672791123E-1,-1.369305653E-3,8.260736614E-2,8.712054354E-1
1.087187454E1,-8.969467282E-1,-2.592761768E-3,8.133437485E-2,9.006305770E-1
1.088189454E1,-9.254666567E-1,-1.246498898E-3,8.490370959E-2,9.293539295E-1
1.089191454E1,-9.573792219E-1,3.079539631E-3,8.370475471E-2,9.610363906E-1
1.090193554E1,-9.842409492E-1,-1.077649416E-3,8.752676845E-2,9.881256714E-1
1.091195554E1,-1.010303140E0,-4.247609526E-3,8.864449710E-2,1.014193435E0
1.092197554E1,-1.031930804E0,-6.462042220E-3,8.941096812E-2,1.035817196E0
1.093199654E1,-1.052364945E0,-6.314503029E-3,8.539385349E-2,1.055842773E0
1.094201654E1,-1.070932984E0,-1.766085392E-3,8.815696836E-2,1.074556758E0
1.095203654E1,-1.089421153E0,-2.025477355E-3,9.165369719E-2,1.093271673E0
1.096205754E1,-1.104021549E0,-2.745340113E-3,9.032915533E-2,1.107714076E0
1.097207754E1,-1.117061138E0,-2.517107408E-3,9.114488214E-2,1.120776209E0
1.098209754E1,-1.130838394E0,-6.218408234E-3,9.166540951E-2,1.134564537E0
1.099211754E1,-1.140724063E0,-2.962426981E-3,9.187473357E-2,1.144421745E0
1.100213854E1,-1.148197532E0,-4.225531593E-3,9.413686395E-2,1.152057801E0
1.101215854E1,-1.154246926E0,-3.827655455E-3,8.971654624E-2,1.157734718E0
1.102217954E1,-1.158092976E0,-4.969620612E-3,8.970268071E-2,1.161572472E0
1.103219954E1,-1.158665061E0,-6.761927623E-3,9.205318242E-2,1.162335681E0
1.104221954E1,-1.154697180E0,-5.691879429E-3,8.786500245E-2,1.158049322E0
1.105223954E1,-1.152780771E0,-1.067567151E-3,8.776193857E-2,1.156117124E0
1.106226054E1,-1.145640492E0,-2.327524358E-3,8.586961776E-2,1.148856452E0
1.107228054E1,-1.136510134E0,1.517281285E-3,8.457159251E-2,1.139653430E0
1.108230054E1,-1.122585058E0,-1.524555497E-3,8.443094790E-2,1.125756689E0
1.109232154E1,-1.107500672E0,-3.240696620E-3,8.311055601E-2,1.110619469E0
1.110234154E1,-1.095789433E0,-6.327047944E-3,8.023153991E-2,1.098740921E0
1.111236154E1,-1.079536676E0,-4.597857594E-3,7.880168408E-2,1.082418718E0
1.112238254E1,-1.057806611E0,-7.833978161E-4,7.772457600E-2,1.060658545E0
1.113240254E1,-1.036129355E0,-4.964294378E-3,7.576476038E-2,1.038907592E0
1.114242254E1,-1.007658005E0,-3.439382650E-3,7.495528460E-2,1.010447811E0
1.115244354E1,-9.844757318E-1,-1.495008823E-3,7.373768836E-2,9.872344951E-1
1.116246354E1,-9.632743001E-1,-3.467056900E-3,7.361116260E-2,9.660890233E-1
1.117248354E1,-9.375872612E-1,-1.128535019E-3,7.112030685E-2,9.402814706E-1
1.118250454E1,-9.033917189E-1,-1.877405448E-3,7.026478648E-2,9.061221014E-1
1.119252454E1,-8.680171967E-1,1.007905230E-4,6.856435537E-2,8.707209281E-1
1.120254454E1,-8.335050344E-1,-8.467694279E-4,6.552798301E-2,8.360773146E-1
1.121256554E1,-8.048369288E-1,-3.501940984E-3,6.393834203E-2,8.073802433E-1
1.122258554E1,-7.721537948E-1,-7.299866527E-3,5.929311737E-2,7.744613900E-1
1.123260554E1,-7.378919721E-1,-4.656413104E-3,5.761665851E-2,7.401526356E-1
1.124262654E1,-6.929844022E-1,-7.585962303E-3,5.610992014E-2,6.952936442E-1
1.125264654E1,-6.440208554E-1,-3.468981944E-3,5.124139413E-2,6.460654584E-1
1.126266654E1,-5.986015201E-1,-1.159967156E-3,4.792969301E-2,6.005184267E-1
1.127268754E1,-5.588873625E-1,-1.785922796E-4,4.380525276E-2,5.606014770E-1
1.128270754E1,-5.125784278E-1,-5.117408931E-3,4.101047292E-2,5.142418608E-1
1.129272754E1,-4.680258632E-1,-3.002326237E-3,3.875344247E-2,4.696371492E-1
1.130274854E1,-4.249989688E-1,-5.848436616E-3,3.346939012E-2,4.263549317E-1
1.131276854E1,-3.798831403E-1,-2.155696740E-3,3.309947625E-2,3.813284970E-1
1.132278854E1,-3.300297260E-1,-2.582903719E-3,2.934205532E-2,3.313415876E-1
1.133280954E1,-2.812462151E-1,-5.314773880E-3,2.645359002E-2,2.825375599E-1
1.134282954E1,-2.329504937E-1,-8.000547998E-3,2.063939907E-2,2.339998420E-1
1.135284954E1,-1.801679730E-1,-3.931238316E-3,1.596475206E-2,1.809166285E-1
1.136287054E1,-1.316033900E-1,4.805135541E-5,1.261148416E-2,1.322062937E-1
1.137289054E1,-8.353812993E-2,1.078961068E-3,7.922722958E-3,8.391991925E-2
1.138291054E1,-3.960923478E-2,-3.608990693E-3,4.808322527E-3,4.006290378E-2
1.139293154E1,6.638420746E-3,-6.867634133E-3,2.687381580E-3,9.922451730E-3
1.140295154E1,6.080440432E-2,-4.996242002E-3,-1.239883015E-3,6.102192498E-2
1.141297154E1,1.047548130E-1,-3.077469300E-4,-8.380883373E-3,1.050899841E-1
1.142299254E1,1.547619551E-1,6.203919183E-3,-1.316715870E-2,1.554449274E-1
1.143301254E1,2.015038878E-1,1.717824256E-3,-1.943091303E-2,2.024458646E-1
1.144303254E1,2.525187135E-1,5.037195515E-4,-2.207723260E-2,2.534824621E-1
1.145305354E1,3.013927639E-1,-2.304051071E-3,-2.713191323E-2,3.026203025E-1
1.146307354E1,3.495586514E-1,-1.397260232E-3,-3.313619643E-2,3.511284817E-1
1.147309354E1,3.968076408E-1,1.187071204E-3,-3.796583787E-2,3.986215220E-1
1.148311454E1,4.413937330E-1,2.437646035E-4,-4.023472592E-2,4.432237811E-1
1.149313454E1,4.840045869E-1,4.634754732E-4,-4.455730319E-2,4.860514461E-1
1.150315454E1,5.290871859E-1,-3.828454530E-3,-4.981151596E-2,5.314405841E-1
1.151317454E1,5.649974942E-1,-5.678286776E-3,-5.450320616E-2,5.676486685E-1
1.152319554E1,6.161855459E-1,-5.568562075E-3,-5.893069133E-2,6.190221824E-1
1.153321554E1,6.565979719E-1,-5.182137713E-3,-6.369801611E-2,6.597008326E-1
1.154323654E1,6.855090261E-1,-4.564007744E-3,-6.834989786E-2,6.889231913E-1
1.155325654E1,7.229634523E-1,-2.175951609E-3,-6.990198791E-2,7.263381968E-1
1.156327654E1,7.585544586E-1,-3.193551907E-3,-7.361212373E-2,7.621245372E-1
1.157329654E1,7.938700914E-1,-3.305138322E-3,-7.685931772E-2,7.975888670E-1
1.158331754E1,8.252555132E-1,-6.871634163E-3,-8.085952699E-2,8.292358799E-1
1.159333754E1,8.547907472E-1,-5.110751837E-3,-8.416344970E-2,8.589393619E-1
1.160335754E1,8.849807978E-1,-3.375989152E-3,-8.630647510E-2,8.891857047E-1
1.161337854E1,9.095540643E-1,-1.206844347E-3,-8.989454806E-2,9.139863687E-1
1.162339854E1,9.369398952E-1,-7.117454894E-3,-8.896367252E-2,9.411809392E-1
1.163341854E1,9.614531994E-1,-7.671126164E-3,-9.138022363E-2,9.658164660E-1
1.164343954E1,9.830905795E-1,-3.626856953E-3,-9.283439070E-2,9.874707417E-1
1.165345954E1,1.004492044E0,-5.097987130E-3,-9.254703671E-2,1.008759243E0
1.166347954E1,1.027574301E0,-4.340555519E-3,-9.696453810E-2,1.032148199E0
1.167350054E1,1.040136933E0,-3.826298984E-3,-9.614294767E-2,1.044577880E0
1.168352054E1,1.053430796E0,9.926711209E-4,-9.768922627E-2,1.057951139E0
1.169354054E1,1.059383512E0,5.423638504E-3,-9.259726852E-2,1.063436455E0
1.170356154E1,1.062797546E0,6.725632586E-3,-9.519012272E-2,1.067073108E0
1.171358154E1,1.069602489E0,3.910138272E-3,-9.580691159E-2,1.073891866E0
1.172360154E1,1.079386353E0,7.762401365E-3,-9.588227421E-2,1.083664416E0
1.173362254E1,1.080900908E0,7.549348287E-3,-9.176369756E-2,1.084815349E0
1.174364254E1,1.084693193E0,1.133853197E-2,-9.100506455E-2,1.088563185E0
1.175366254E1,1.083189368E0,6.259084214E-3,-8.956588805E-2,1.086904058E0
1.176368354E1,1.081509709E0,3.171946388E-3,-8.908361197E-2,1.085177037E0
1.177370354E1,1.066145658E0,8.463913575E-3,-8.553122729E-2,1.069604503E0
1.178372354E1,1.054086208E0,1.416945364E-2,-8.552104980E-2,1.057644722E0
1.179374454E1,1.039149046E0,2.107050270E-2,-8.459160477E-2,1.042799331E0
1.180376454E1,1.029313087E0,2.341810241E-2,-8.007510006E-2,1.032688656E0
1.181378421E1,1.013361812E0,2.173658274E-2,-7.818079740E-2,1.016605566E0
1.182380521E1,1.001877189E0,1.997783408E-2,-7.869815826E-2,1.005161885E0
1.183382521E1,9.958400726E-1,1.276146714E-2,-7.467571646E-2,9.987175616E-1
1.184384521E1,9.789353013E-1,1.381951477E-2,-7.508651912E-2,9.819079837E-1
1.185386621E1,9.602646232E-1,1.437904499E-2,-7.406385988E-2,9.632239401E-1
1.186388621E1,9.388880730E-1,1.126395352E-2,-7.079286128E-2,9.416205815E-1
1.187390621E1,9.172621369E-1,8.367500268E-3,-6.915262341E-2,9.199032168E-1
1.188392721E1,8.921705484E-1,7.035117596E-3,-6.641066819E-2,8.946665062E-1
1.189394721E1,8.615971804E-1,7.786395028E-3,-6.716487557E-2,8.642461742E-1
1.190396721E1,8.264378905E-1,1.502192859E-2,-6.299819797E-2,8.289716631E-1
1.191398821E1,7.939358354E-1,1.536334585E-2,-6.158406287E-2,7.964689196E-1
1.192400821E1,7.650187016E-1,1.322935242E-2,-5.805752426E-2,7.673325913E-1
1.193402821E1,7.316029668E-1,1.430606842E-2,-5.639411509E-2,7.339127065E-1
1.194404921E1,6.989962459E-1,3.460605629E-3,-5.645835772E-2,7.012811659E-1
1.195406921E1,6.575843692E-1,2.665385837E-3,-5.234057829E-2,6.596694953E-1
1.196408921E1,6.221097112E-1,3.069376107E-3,-5.015742034E-2,6.241359472E-1
1.197411021E1,5.815974474E-1,1.658891328E-2,-4.750810936E-2,5.837703344E-1
1.198413021E1,5.553376079E-1,1.732235029E-2,-4.258763045E-2,5.572374977E-1
1.199415021E1,5.180464387E-1,1.167881535E-3,-4.204860702E-2,5.197514425E-1
1.200417121E1,4.663446546E-1,-6.433566101E-3,-4.080958292E-2,4.681710688E-1
1.201419121E1,4.251801670E-1,-1.501658466E-3,-3.903592005E-2,4.269709972E-1
1.202421121E1,3.864071667E-1,9.825818241E-3,-3.245643154E-2,3.878923371E-1
1.203423221E1,3.459156752E-1,1.245808601E-2,-2.979486994E-2,3.474199080E-1
1.204425221E1,3.040349185E-1,7.770425640E-3,-2.799205296E-2,3.054196559E-1
1.205427221E1,2.581047118E-1,-2.968771616E-3,-2.339170687E-2,2.591795281E-1
1.206429321E1,2.092721313E-1,-2.965856576E-3,-2.081874758E-2,2.103260362E-1
1.207431321E1,1.655006856E-1,-1.073414460E-3,-1.661734469E-2,1.663363018E-1
1.208433321E1,1.188955680E-1,1.762567670E-3,-1.566225290E-2,1.199356865E-1
1.209435421E1,7.682188600E-2,1.357500907E-3,-8.540960960E-3,7.730713416E-2
1.210437421E1,2.724549174E-2,-3.929471131E-4,-7.446001284E-3,2.824737444E-2
1.211439421E1,-1.925889403E-2,-4.809000995E-3,-3.258979414E-3,2.011597466E-2
1.212441421E1,-7.130839676E-2,-1.890740357E-3,-8.623708854E-4,7.133867135E-2
1.213443521E1,-1.140872911E-1,2.111990936E-3,6.473838817E-3,1.142903368E-1
1.214445521E1,-1.563652009E-1,4.827091936E-3,9.681187570E-3,1.567389621E-1
1.215447521E1,-1.985507309E-1,8.207708597E-3,1.651352644E-2,1.994052552E-1
1.216449621E1,-2.421898097E-1,5.890495609E-3,2.341222204E-2,2.433900861E-1
1.217451621E1,-2.928516567E-1,2.040629741E-3,2.715609223E-2,2.941151311E-1
1.218453621E1,-3.371551931E-1,-4.005006514E-3,3.517282382E-2,3.390085424E-1
1.219455721E1,-3.798411489E-1,-6.940608844E-3,3.793611750E-2,3.817939489E-1
1.220457721E1,-4.130718410E-1,-2.127227141E-3,4.341829568E-2,4.153528853E-1
1.221459721E1,-4.497457147E-1,3.344503464E-3,4.571900144E-2,4.520759014E-1
1.222461821E1,-4.901740253E-1,4.233217798E-3,4.952115938E-2,4.926873658E-1
1.223463821E1,-5.324048400E-1,4.057448823E-3,5.689784884E-2,5.354519042E-1
1.224465821E1,-5.681376457E-1,-1.768775517E-3,5.833748728E-2,5.711276350E-1
1.225467921E1,-6.015043855E-1,-3.814349649E-3,6.017799675E-2,6.045192026E-1
1.226469921E1,-6.338057518E-1,-3.507791553E-3,5.986356735E-2,6.366362245E-1
1.227471921E1,-6.705126762E-1,1.294420566E-3,6.645356119E-2,6.737989317E-1
1.228474021E1,-7.086220980E-1,-2.614327241E-4,6.566404551E-2,7.116580028E-1
1.229476021E1,-7.399054170E-1,-2.219655085E-3,6.937276572E-2,7.431537752E-1
1.230478021E1,-7.688333392E-1,-5.925675854E-3,7.378604263E-2,7.723886309E-1
1.231480121E1,-7.950212955E-1,-3.972246777E-3,7.486515492E-2,7.985483270E-1
1.232482121E1,-8.197984695E-1,-3.474225989E-3,7.630770653E-2,8.233495412E-1
1.233484121E1,-8.503686190E-1,-1.887248596E-3,7.908644527E-2,8.540404063E-1
1.234486221E1,-8.745532632E-1,-3.279546509E-3,8.054914325E-2,8.782609692E-1
1.235488221E1,-8.981113434E-1,-4.791955464E-3,7.936883718E-2,9.016242900E-1
1.236490221E1,-9.155887365E-1,-6.487079430E-3,8.285076171E-2,9.193525251E-1
1.237492321E1,-9.321594238E-1,-4.281217698E-4,8.089173585E-2,9.356627852E-1
1.238494321E1,-9.503035545E-1,1.630767947E-3,7.950955629E-2,9.536253325E-1
1.239496321E1,-9.655437469E-1,4.080876242E-3,8.358126134E-2,9.691631483E-1
1.240498421E1,-9.771538377E-1,-8.185382467E-4,8.044437319E-2,9.804598868E-1
1.241500421E1,-9.870309234E-1,-8.832522668E-3,7.860838622E-2,9.901956047E-1
1.242502421E1,-9.933932424E-1,-5.819149315E-3,7.760740817E-2,9.964371060E-1
1.243504521E1,-1.002296686E0,-5.326730199E-3,7.875815779E-2,1.005400352E0
1.244506521E1,-1.010679483E0,6.030651275E-4,7.911717892E-2,1.013771626E0
1.245508521E1,-1.013187885E0,-6.515564397E-3,7.949108630E-2,1.016322280E0
1.246510621E1,-1.010249019E0,-5.583744496E-3,7.515039295E-2,1.013055694E0
1.247512621E1,-1.010059357E0,-7.381377742E-3,7.640021294E-2,1.012971560E0
1.248514621E1,-1.011174798E0,-3.190075280E-3,7.585506886E-2,1.014021026E0
1.249516721E1,-1.009558320E0,-3.525899956E-3,7.378926128E-2,1.012257521E0
1.250518721E1,-1.003455877E0,-3.594606649E-3,7.691344619E-2,1.006405632E0
1.251520721E1,-9.921095371E-1,-4.984510597E-3,7.319407910E-2,9.948183514E-1
1.252522821E1,-9.782398939E-1,-5.891598295E-3,7.177811116E-2,9.808874034E-1
1.253524821E1,-9.692589045E-1,-2.214039676E-3,7.285722345E-2,9.719958338E-1
1.254526821E1,-9.600227475E-1,-2.734416397E-3,7.283572108E-2,9.627856434E-1
1.255528921E1,-9.441726804E-1,-4.901164211E-3,7.113768905E-2,9.468614696E-1
1.256530921E1,-9.246322513E-1,-2.287274692E-3,6.728671491E-2,9.270801118E-1
1.257532921E1,-9.022851586E-1,-2.989283763E-3,6.606778502E-2,9.047056955E-1
1.258535021E1,-8.777218461E-1,-2.382469829E-4,6.516087055E-2,8.801372819E-1
1.259537021E1,-8.545451164E-1,-2.537354128E-3,6.184817106E-2,8.567840979E-1
1.260539021E1,-8.343906403E-1,-5.276171491E-3,6.122662872E-2,8.366506311E-1
1.261541121E1,-8.099790215E-1,-3.383463016E-3,6.063860282E-2,8.122527337E-1
1.262543121E1,-7.791463137E-1,-2.316055121E-3,5.686076358E-2,7.812217922E-1
1.263545121E1,-7.479447126E-1,-3.672136692E-3,5.605515838E-2,7.500513039E-1
1.264547221E1,-7.195504904E-1,-1.095243730E-3,5.196767673E-2,7.214254966E-1
1.265549221E1,-6.892410517E-1,-1.151702832E-3,5.139882490E-2,6.911558384E-1
1.266551221E1,-6.574629545E-1,-2.753334586E-3,5.085119978E-2,6.594323028E-1
1.267553321E1,-6.237699986E-1,-3.684375901E-3,4.744315147E-2,6.255824792E-1
1.268555321E1,-5.896189213E-1,-4.526735283E-3,4.450939223E-2,5.913138335E-1
1.269557321E1,-5.531719923E-1,-3.065458732E-3,4.371017963E-2,5.549047034E-1
1.270559421E1,-5.139917731E-1,-5.536860786E-3,4.018696025E-2,5.155901390E-1
1.271561421E1,-4.763416052E-1,-3.201801097E-3,3.997550532E-2,4.780267957E-1
1.272563421E1,-4.352679253E-1,-3.747751936E-3,3.612293303E-2,4.367803552E-1
1.273565521E1,-3.938206434E-1,-8.055681363E-3,3.384007141E-2,3.953539473E-1
1.274567521E1,-3.513697386E-1,-6.548313424E-3,3.106885776E-2,3.528014279E-1
1.275569521E1,-3.112987578E-1,-3.443067195E-3,2.789117396E-2,3.125646955E-1
1.276571521E1,-2.701984942E-1,-6.073744502E-3,2.474743128E-2,2.713974060E-1
1.277573621E1,-2.271418422E-1,-3.379957285E-3,1.938116178E-2,2.279922587E-1
1.278575621E1,-1.854397357E-1,-2.822042210E-3,1.745864004E-2,1.862811413E-1
1.279577621E1,-1.427380890E-1,-4.558157176E-3,1.277680416E-2,1.433812595E-1
1.280579721E1,-9.864382446E-2,-3.005791223E-3,9.855174460E-3,9.918045850E-2
1.281581771E1,-5.927218497E-2,-2.123485552E-3,6.133940071E-3,5.962655719E-2
1.282583771E1,-1.229039673E-2,-3.753899829E-3,1.242734957E-3,1.291084838E-2
1.283585871E1,3.088290617E-2,-2.880915767E-3,-2.500870731E-3,3.111764650E-2
1.284587871E1,7.296044379E-2,-8.850125596E-4,-7.217201870E-3,7.332187674E-2
1.285589871E1,1.181582808E-1,-5.321437493E-4,-8.407901041E-3,1.184582429E-1
1.286591971E1,1.601960361E-1,7.259501144E-4,-1.364010852E-2,1.607773291E-1
1.287593971E1,2.025126070E-1,-2.967035398E-4,-1.712858304E-2,2.032359033E-1
1.288595971E1,2.450577021E-1,-7.777870633E-5,-2.207880281E-2,2.460503138E-1
1.289598071E1,2.849792540E-1,1.023971010E-3,-2.192913368E-2,2.858235656E-1
1.290600071E1,3.270136118E-1,6.202510558E-4,-2.703741752E-2,3.281300184E-1
1.291602071E1,3.657836318E-1,-3.818962723E-4,-3.210701048E-2,3.671902385E-1
1.292604171E1,4.090831876E-1,1.203440130E-3,-3.567750752E-2,4.106377810E-1
1.293606171E1,4.491184950E-1,2.693478717E-3,-3.867036849E-2,4.507882815E-1
1.294608171E1,4.868168235E-1,4.708599299E-4,-4.400907084E-2,4.888022500E-1
1.295610271E1,5.183648467E-1,-2.177121118E-3,-4.566263035E-2,5.203767193E-1
1.296612271E1,5.529573560E-1,-2.633338794E-3,-5.186290666E-2,5.553904330E-1
1.297614271E1,5.842039585E-1,2.074064687E-3,-5.563234538E-2,5.868505131E-1
1.298616371E1,6.273536682E-1,-4.642137792E-3,-6.131701916E-2,6.303601759E-1
1.299618371E1,6.577278376E-1,-7.475208491E-3,-6.313010305E-2,6.607928548E-1
1.300620371E1,6.834011674E-1,-5.612870213E-3,-6.805926561E-2,6.868047201E-1
1.301622471E1,7.108596563E-1,-4.219770432E-3,-6.925156713E-2,7.142373814E-1
1.302624471E1,7.407795191E-1,-2.408284694E-3,-7.315783203E-2,7.443871064E-1
1.303626471E1,7.696031332E-1,-6.087175570E-3,-7.495519519E-2,7.732685935E-1
1.304628571E1,7.909700274E-1,-6.259744056E-3,-7.896875590E-2,7.949269357E-1
1.305630571E1,8.133512139E-1,-6.786516868E-3,-7.961723953E-2,8.172668835E-1
1.306632571E1,8.347520828E-1,-6.146835163E-3,-7.972739637E-2,8.385733606E-1
1.307634671E1,8.547159433E-1,-2.990190405E-3,-8.202437311E-2,8.586479388E-1
1.308636671E1,8.733169436E-1,-3.434954211E-3,-8.146052808E-2,8.771146451E-1
1.309638671E1,8.910075426E-1,-2.045582980E-3,-7.897899300E-2,8.945033855E-1
1.310640771E1,9.056208730E-1,-9.014823008E-4,-8.698251098E-2,9.097889511E-1
1.311642771E1,9.184263945E-1,-2.266618889E-3,-8.395768702E-2,9.222586800E-1
1.312644771E1,9.298279881E-1,-2.278063912E-3,-8.402071893E-2,9.336191720E-1
1.313646871E1,9.390824437E-1,1.227760222E-4,-8.512113243E-2,9.429323721E-1
1.314648871E1,9.435150027E-1,4.622717854E-3,-8.641918004E-2,9.474757013E-1
1.315650871E1,9.487183094E-1,7.870443165E-3,-8.297358453E-2,9.523722960E-1
1.316652971E1,9.482887387E-1,4.919928033E-3,-8.199431747E-2,9.518396954E-1
1.317654971E1,9.501476288E-1,3.428824013E-3,-8.558426052E-2,9.540004921E-1
1.318656971E1,9.489316344E-1,6.158299278E-3,-8.085606992E-2,9.523900858E-1
1.319659071E1,9.458751082E-1,5.449632183E-3,-8.030372858E-2,9.492934782E-1
1.320661071E1,9.418536425E-1,1.201217063E-2,-8.040679246E-2,9.453559268E-1
1.321663071E1,9.405106306E-1,1.094051450E-2,-7.597795874E-2,9.436379557E-1
1.322665171E1,9.225656986E-1,1.479437202E-2,-7.410658896E-2,9.256555127E-1
1.323667171E1,9.031105042E-1,1.136848144E-2,-7.276994735E-2,9.061088733E-1
1.324669171E1,8.906444311E-1,8.262204006E-3,-7.062806934E-2,8.934786460E-1
1.325671271E1,8.885405064E-1,1.079273969E-2,-7.048665732E-2,8.913972647E-1
1.326673271E1,8.761822581E-1,1.994679496E-2,-6.540837884E-2,8.788466761E-1
1.327675271E1,8.676502705E-1,1.674434543E-2,-6.727099419E-2,8.704152754E-1
1.328677371E1,8.481376767E-1,1.272566244E-2,-6.285936385E-2,8.505590872E-1
1.329679371E1,8.269221783E-1,1.156079583E-2,-6.452383846E-2,8.295162847E-1
1.330681371E1,8.076398969E-1,1.392009854E-2,-6.016589701E-2,8.099974737E-1
1.331683471E1,7.844123244E-1,1.674224995E-2,-6.086178124E-2,7.869479996E-1
1.332685471E1,7.609177232E-1,8.378036320E-3,-5.846377835E-2,7.632063851E-1
1.333687471E1,7.368137240E-1,1.201644633E-2,-5.832982063E-2,7.392166306E-1
1.334689571E1,7.101539373E-1,5.861628801E-3,-5.399505049E-2,7.122277999E-1
1.335691571E1,6.763563156E-1,6.354047917E-3,-5.224162713E-2,6.784006391E-1
1.336693571E1,6.514471769E-1,9.725593030E-3,-4.908762872E-2,6.533663649E-1
1.337695671E1,6.216112375E-1,1.404577307E-2,-4.933103919E-2,6.237237897E-1
1.338697671E1,5.966087580E-1,6.445386447E-3,-4.811864719E-2,5.985807859E-1
1.339699671E1,5.570778251E-1,6.864301860E-3,-4.209031537E-2,5.587078096E-1
1.340701771E1,5.258051157E-1,4.581804387E-5,-4.404468089E-2,5.276466201E-1
1.341703771E1,4.945247471E-1,2.630415838E-3,-3.727545962E-2,4.959345768E-1
1.342705771E1,4.571264386E-1,4.288752098E-3,-3.634222969E-2,4.585888485E-1
1.343707871E1,4.196280837E-1,1.218901947E-2,-3.711188212E-2,4.214422767E-1
1.344709871E1,3.818855584E-1,9.476603940E-3,-3.048040345E-2,3.832172239E-1
1.345711871E1,3.454457819E-1,-7.914636284E-3,-2.637034655E-2,3.465412312E-1
1.346713971E1,3.103535771E-1,-1.200897805E-2,-2.564779110E-2,3.116430131E-1
1.347715971E1,2.752632201E-1,-1.151842438E-2,-2.532394975E-2,2.766655325E-1
1.348717971E1,2.348360717E-1,2.726264996E-3,-2.218419127E-2,2.358973324E-1
1.349719971E1,1.947030276E-1,7.729545701E-3,-1.863845810E-2,1.957457712E-1
1.350722071E1,1.521879584E-1,3.570521949E-3,-1.318853348E-2,1.528000678E-1
1.351724071E1,1.163732484E-1,-2.544894814E-3,-1.259731129E-2,1.170807486E-1
1.352726071E1,7.741537690E-2,-1.892167609E-3,-1.154885441E-2,7.829493545E-2
1.353728171E1,4.030475765E-2,2.665832639E-3,-9.480643086E-3,4.149051393E-2
1.354730171E1,-6.013809703E-3,3.782478860E-3,-4.585715942E-3,8.455876310E-3
1.355732171E1,-4.596947879E-2,8.066627197E-4,-1.182462322E-3,4.599175906E-2
1.356734271E1,-8.170578629E-2,-1.646082848E-3,2.738907002E-3,8.176825003E-2
1.357736271E1,-1.223789155E-1,-1.177366357E-3,5.599142052E-3,1.225125935E-1
1.358738271E1,-1.623703688E-1,2.416813513E-3,1.286815014E-2,1.628974124E-1
1.359740371E1,-2.008602470E-1,4.976644181E-3,1.552385464E-2,2.015207083E-1
1.360742371E1,-2.406726480E-1,3.333469853E-3,2.076145262E-2,2.415894729E-1
1.361744371E1,-2.829253078E-1,-4.669861868E-3,2.570268139E-2,2.841287828E-1
1.362746471E1,-3.185836375E-1,-9.198553860E-3,2.916442417E-2,3.200479825E-1
1.363748471E1,-3.554007709E-1,-2.460490447E-3,3.782875091E-2,3.574168104E-1
1.364750471E1,-3.864718378E-1,3.490086645E-3,4.153204337E-2,3.887127123E-1
1.365752571E1,-4.239185452E-1,4.627788905E-3,4.418854788E-2,4.262405157E-1
1.366754571E1,-4.578189552E-1,2.545733005E-3,4.602193087E-2,4.601333444E-1
1.367756571E1,-4.923649430E-1,9.126825025E-4,4.906699061E-2,4.948046480E-1
1.368758671E1,-5.192978978E-1,-3.813382704E-3,5.085206032E-2,5.217957269E-1
1.369760671E1,-5.487018228E-1,-1.624530647E-3,5.452935398E-2,5.514070909E-1
1.370762671E1,-5.815430880E-1,1.067403355E-3,5.869947746E-2,5.844990429E-1
1.371764771E1,-6.086112261E-1,-2.396760974E-4,5.929202959E-2,6.114926220E-1
1.372766771E1,-6.368803382E-1,-5.848170258E-4,6.144687533E-2,6.398379683E-1
1.373768771E1,-6.620413661E-1,-4.070894793E-3,6.586452574E-2,6.653220862E-1
1.374770871E1,-6.900660992E-1,-4.723907914E-3,6.518318504E-2,6.931539397E-1
1.375772871E1,-7.103247643E-1,-3.917769063E-3,6.855661422E-2,7.136362021E-1
1.376774871E1,-7.345255017E-1,-1.132124104E-3,6.829961389E-2,7.376949448E-1
1.377776971E1,-7.551460862E-1,-1.398440450E-3,7.126744092E-2,7.585028776E-1
1.378778971E1,-7.747012377E-1,-1.377897803E-3,7.155964524E-2,7.780004429E-1
1.379780971E1,-7.972579598E-1,-6.436640397E-4,7.548328489E-2,8.008235730E-1
1.380783071E1,-8.106502891E-1,1.282320474E-3,7.235909253E-2,8.138742985E-1
1.381785008E1,-8.260782957E-1,-4.820236936E-4,7.439481467E-2,8.294215885E-1
1.382787008E1,-8.400830626E-1,-1.376049593E-3,7.318916172E-2,8.432663275E-1
1.383789108E1,-8.495162129E-1,-5.592582747E-4,7.274920493E-2,8.526256832E-1
1.384791108E1,-8.629882932E-1,2.410365269E-4,7.190261781E-2,8.659785440E-1
1.385793108E1,-8.693372607E-1,-1.728104893E-3,7.053960860E-2,8.721961337E-1
1.386795208E1,-8.775876164E-1,-5.016865209E-3,7.123136520E-2,8.804879902E-1
1.387797208E1,-8.814315796E-1,-6.152437069E-3,7.053255290E-2,8.842705033E-1
1.388799208E1,-8.852084279E-1,-4.785659257E-4,7.019921392E-2,8.879876798E-1
1.389801308E1,-8.876532316E-1,-1.358740497E-3,6.755921990E-2,8.902215196E-1
1.390803308E1,-8.842076659E-1,-4.910943098E-4,6.680939347E-2,8.867282181E-1
1.391805308E1,-8.807258606E-1,-2.840268891E-3,6.718276441E-2,8.832890990E-1
1.392807408E1,-8.796738386E-1,-4.158785567E-3,6.384254992E-2,8.819972954E-1
1.393809408E1,-8.733922839E-1,-5.633643828E-3,6.479942054E-2,8.758109296E-1
1.394811408E1,-8.707039952E-1,-6.193694193E-3,6.689239293E-2,8.732917046E-1
1.395813508E1,-8.606332541E-1,-6.252017338E-3,6.524229795E-2,8.631252766E-1
1.396815508E1,-8.502334356E-1,-1.342756674E-3,6.187638268E-2,8.524830701E-1
1.397817508E1,-8.364714980E-1,-3.520157188E-3,6.164176017E-2,8.387470805E-1
1.398819608E1,-8.239852786E-1,-4.230959807E-3,5.905973911E-2,8.261099764E-1
1.399821608E1,-8.106210232E-1,7.339713629E-4,5.986694247E-2,8.128290304E-1
1.400823608E1,-7.986029983E-1,5.627365317E-4,5.743504688E-2,8.006658792E-1
1.401825708E1,-7.786076665E-1,-2.998442389E-3,5.791708082E-2,7.807645466E-1
1.402827708E1,-7.614078522E-1,-2.633051947E-3,5.681701377E-2,7.635293206E-1
1.403829708E1,-7.354329824E-1,-7.472814992E-3,5.381376669E-2,7.374370726E-1
1.404831808E1,-7.151930928E-1,-1.561153680E-3,5.233962089E-2,7.171074070E-1
1.405833808E1,-6.910504699E-1,-2.504179254E-3,5.050816387E-2,6.928983312E-1
1.406835808E1,-6.644309759E-1,-8.506574668E-4,4.957386479E-2,6.662783303E-1
1.407837908E1,-6.377413273E-1,-4.538070410E-3,4.985509440E-2,6.397031539E-1
1.408839908E1,-6.081101894E-1,-3.823218867E-3,4.425301775E-2,6.097302265E-1
1.409841908E1,-5.793640614E-1,-4.670636728E-3,4.624453187E-2,5.812255046E-1
1.410844008E1,-5.484620929E-1,-2.848241478E-3,4.374158755E-2,5.502109653E-1
1.411846008E1,-5.226081610E-1,-4.657326732E-3,4.116684198E-2,5.242477367E-1
1.412848008E1,-4.921118021E-1,-4.599288106E-3,4.043342546E-2,4.937914956E-1
1.413850108E1,-4.596776962E-1,-4.305541515E-3,3.552495316E-2,4.610684812E-1
1.414852108E1,-4.236659706E-1,-2.856798004E-3,3.406084701E-2,4.250425358E-1
1.415854108E1,-3.886840045E-1,-1.508705784E-3,3.193005174E-2,3.899962305E-1
1.416856208E1,-3.543128371E-1,-9.310294408E-4,2.874004282E-2,3.554777678E-1
1.417858208E1,-3.186443150E-1,-3.943331074E-3,2.931954712E-2,3.200146640E-1
1.418860208E1,-2.870506942E-1,-3.656767309E-3,2.499551885E-2,2.881601099E-1
1.419862308E1,-2.489940971E-1,-4.905523732E-3,2.107667737E-2,2.499326927E-1
1.420864308E1,-2.110902071E-1,-5.573926028E-4,2.127751522E-2,2.121605969E-1
1.421866308E1,-1.703148037E-1,-7.864243817E-4,1.510910038E-2,1.709854840E-1
1.422868408E1,-1.343006790E-1,-2.620825544E-3,1.464630198E-2,1.351223714E-1
1.423870408E1,-9.184562415E-2,-2.801121678E-3,1.155250799E-2,9.261169148E-2
1.424872408E1,-5.549186096E-2,6.924180780E-4,7.137847599E-3,5.595332826E-2
1.425874508E1,-2.119407430E-2,-2.167550381E-3,3.480528481E-3,2.158705952E-2
1.426876508E1,1.867024973E-2,-3.703129012E-3,1.073563471E-3,1.906420541E-2
1.427878508E1,6.022994593E-2,-4.333232995E-3,-3.882579273E-3,6.051031083E-2
1.428880608E1,9.359694272E-2,-1.394704916E-3,-4.543084651E-3,9.371751441E-2
1.429882608E1,1.347441077E-1,1.989307348E-4,-9.590307251E-3,1.350851144E-1
1.430884608E1,1.708581001E-1,3.037080169E-4,-1.328116190E-2,1.713737782E-1
1.431886708E1,2.089032233E-1,-1.428145450E-3,-1.768576354E-2,2.096553899E-1
1.432888708E1,2.457649261E-1,2.217269503E-4,-2.053102292E-2,2.466211081E-1
1.433890708E1,2.806414366E-1,2.483815886E-3,-2.482217364E-2,2.817479824E-1
1.434892808E1,3.164600432E-1,1.123446389E-3,-2.628214099E-2,3.175515265E-1
1.435894808E1,3.492821753E-1,1.908546314E-3,-3.064493090E-2,3.506291379E-1
1.436896808E1,3.843335509E-1,1.297130599E-3,-3.590112180E-2,3.860088749E-1
1.437898908E1,4.170209169E-1,3.013745882E-4,-3.651524335E-2,4.186166492E-1
1.438900908E1,4.467642903E-1,1.117329462E-3,-3.953714296E-2,4.485117225E-1
1.439902908E1,4.768311083E-1,-2.463822952E-3,-4.563098773E-2,4.790158279E-1
1.440905008E1,5.045247674E-1,2.430030145E-4,-4.778452218E-2,5.067826561E-1
1.441907008E1,5.361186266E-1,-1.741801575E-2,-5.167220533E-2,5.388845756E-1
1.442909008E1,5.657386184E-1,-5.905474536E-4,-5.555197969E-2,5.684598099E-1
1.443911108E1,5.971045494E-1,-2.368740272E-3,-5.944605544E-2,6.000610697E-1
1.444913108E1,6.147592068E-1,1.295651309E-4,-6.176093966E-2,6.178537956E-1
1.445915108E1,6.416327953E-1,-6.488123909E-3,-6.470106542E-2,6.449193497E-1
1.446917208E1,6.640143394E-1,-8.148597553E-3,-6.667944789E-2,6.674036196E-1
1.447919208E1,6.891530156E-1,-7.543792948E-3,-6.828400493E-2,6.925687641E-1
1.448921208E1,7.095705271E-1,-3.260609228E-3,-7.270480692E-2,7.132930347E-1
1.449923308E1,7.296099663E-1,-1.234209631E-3,-7.240067422E-2,7.331944379E-1
1.450925308E1,7.432790995E-1,-2.959688893E-3,-7.320332527E-2,7.468810523E-1
1.451927308E1,7.597840428E-1,-3.374875756E-3,-7.412664592E-2,7.633989397E-1
1.452929408E1,7.748490572E-1,-2.718669362E-3,-7.382354140E-2,7.783626198E-1
1.453931408E1,7.898032069E-1,-5.457962397E-4,-7.609788328E-2,7.934609577E-1
1.454933408E1,8.000252843E-1,-3.706685500E-3,-7.600945234E-2,8.036365048E-1
1.455935508E1,8.076674938E-1,-2.201200696E-3,-7.617723197E-2,8.112549516E-1
1.456937508E1,8.167133927E-1,-3.508441150E-4,-7.548256218E-2,8.201941881E-1
1.457939508E1,8.238237500E-1,3.084367374E-3,-7.517176867E-2,8.272520047E-1
1.458941608E1,8.262949586E-1,2.826045500E-3,-7.307445258E-2,8.295246957E-1
1.459943608E1,8.274856806E-1,2.049734117E-3,-7.492268085E-2,8.308731318E-1
1.460945608E1,8.322702646E-1,5.044186022E-3,-7.236854732E-2,8.354259057E-1
1.461947708E1,8.329299092E-1,4.544310737E-3,-7.092352211E-2,8.359563568E-1
1.462949708E1,8.323570490E-1,2.710707020E-3,-7.155518979E-2,8.354314754E-1
1.463951708E1,8.288334012E-1,7.446073461E-3,-6.841079146E-2,8.316852093E-1
1.464953808E1,8.184365034E-1,7.474333048E-3,-6.722948700E-2,8.212271182E-1
1.465955808E1,8.113112450E-1,9.855997749E-3,-6.501879543E-2,8.139720638E-1
1.466957808E1,7.938227654E-1,9.717497043E-3,-6.814856827E-2,7.968018825E-1
1.467959908E1,7.869139910E-1,1.282940060E-2,-6.171889976E-2,7.894348898E-1
1.468961908E1,7.813559771E-1,1.806358248E-2,-6.124186516E-2,7.839604722E-1
1.469963908E1,7.678947449E-1,2.156537212E-2,-5.790811777E-2,7.703770211E-1
1.470966008E1,7.588840127E-1,1.041952241E-2,-6.050180644E-2,7.613632377E-1
1.471968008E1,7.412852645E-1,4.332335200E-3,-5.610572547E-2,7.434180956E-1
1.472970008E1,7.230495214E-1,-1.124231843E-3,-5.761417001E-2,7.253421723E-1
1.473972008E1,7.087541819E-1,5.722222850E-3,-5.469481274E-2,7.108844890E-1
1.474974108E1,6.884302497E-1,9.601114318E-3,-5.407699943E-2,6.906176308E-1
1.475976108E1,6.703234315E-1,1.109168492E-2,-4.949529842E-2,6.722397733E-1
1.476978208E1,6.443955302E-1,1.070528198E-2,-4.875371978E-2,6.463258680E-1
1.477980208E1,6.194542646E-1,8.347053081E-3,-4.885678366E-2,6.214340227E-1
1.478982208E1,5.960002542E-1,9.526025504E-3,-4.541539401E-2,5.978039864E-1
1.479984208E1,5.697694421E-1,8.898586035E-3,-4.308619350E-2,5.714655038E-1
1.480986308E1,5.412184596E-1,1.023894828E-2,-4.084338248E-2,5.428539757E-1
1.481988346E1,5.175954103E-1,1.076705288E-2,-3.852270171E-2,5.191386489E-1
1.482990346E1,4.907437563E-1,8.387502283E-3,-3.855806217E-2,4.923276436E-1
1.483992446E1,4.605384469E-1,7.409323938E-3,-3.555588052E-2,4.619683753E-1
1.484994446E1,4.306634665E-1,6.648480892E-3,-3.215498105E-2,4.319133784E-1
1.485996446E1,3.989652097E-1,4.161088262E-3,-3.414595872E-2,4.004453767E-1
1.486998546E1,3.690850437E-1,4.164011218E-3,-2.977927774E-2,3.703078636E-1
1.488000546E1,3.342607319E-1,5.447654985E-3,-2.839363366E-2,3.355087365E-1
1.489002546E1,2.998500764E-1,2.744283993E-3,-2.329548448E-2,3.007661534E-1
1.490004646E1,2.724376023E-1,3.018323332E-3,-2.135723457E-2,2.732901185E-1
1.491006646E1,2.407185286E-1,7.828578819E-4,-2.078291588E-2,2.416152985E-1
1.492008646E1,2.040718347E-1,6.866316311E-3,-1.931551471E-2,2.050988764E-1
1.493010746E1,1.726806015E-1,2.264371375E-3,-1.623188145E-2,1.734565983E-1
1.494012746E1,1.359478831E-1,2.859090455E-4,-1.335034147E-2,1.366021240E-1
1.495014746E1,1.015787870E-1,-4.975952674E-3,-1.034930348E-2,1.022258194E-1
1.496016846E1,6.643837690E-2,-4.336650018E-4,-7.848062553E-3,6.690170459E-2
1.497018846E1,3.176372498E-2,-1.144735375E-3,-4.445180297E-3,3.209367962E-2
1.498020846E1,-3.842474893E-3,5.121682771E-3,-1.243261853E-3,6.522418856E-3
1.499022946E1,-4.058231041E-2,-1.330611529E-3,-1.694436069E-3,4.063945815E-2
1.500024946E1,-7.297460735E-2,-4.015610553E-3,3.319763578E-3,7.316036684E-2
1.501026946E1,-1.046452746E-1,7.876427844E-6,4.360232968E-3,1.047360739E-1
1.502029046E1,-1.400200278E-1,4.772804212E-3,1.072039455E-2,1.405109060E-1
1.503031046E1,-1.723039150E-1,5.156571511E-3,1.178867090E-2,1.727836859E-1
1.504033046E1,-2.058072835E-1,-1.099992776E-3,1.776107773E-2,2.065751772E-1
1.505035146E1,-2.392874956E-1,7.418915629E-5,2.053227834E-2,2.401667869E-1
1.506037146E1,-2.747283280E-1,-2.940775361E-3,2.436723001E-2,2.758225231E-1
1.507039146E1,-3.069256246E-1,-6.531106774E-4,2.880074084E-2,3.082746312E-1
1.508041246E1,-3.369034827E-1,-1.692542573E-3,3.312358260E-2,3.385321153E-1
1.509043246E1,-3.679978251E-1,-7.796203718E-4,3.725293651E-2,3.698794241E-1
1.510045246E1,-3.943066597E-1,-2.464868594E-3,3.941408917E-2,3.962793054E-1
1.511047346E1,-4.259172976E-1,-9.143690113E-4,4.487607256E-2,4.282758951E-1
1.512049346E1,-4.556706548E-1,2.086747205E-3,4.758690298E-2,4.581534824E-1
1.513051346E1,-4.813672006E-1,-7.982503157E-4,4.948288947E-2,4.839045106E-1
1.514053446E1,-5.024772286E-1,-2.158592921E-3,5.317775905E-2,5.052879366E-1
1.515055446E1,-5.272791386E-1,-4.575970583E-3,5.419073999E-2,5.300762830E-1
1.516057446E1,-5.502632856E-1,1.004150952E-3,5.579369515E-2,5.530855524E-1
1.517059546E1,-5.777295232E-1,7.785868365E-4,5.959009379E-2,5.807951338E-1
1.518061546E1,-5.980513096E-1,2.662773244E-3,5.703905225E-2,6.007710985E-1
1.519063546E1,-6.163071990E-1,-2.929590177E-3,6.037556380E-2,6.192643658E-1
1.520065646E1,-6.365901232E-1,-4.049715586E-3,6.228904799E-2,6.396431119E-1
1.521067646E1,-6.510128975E-1,-4.631334916E-3,6.219874695E-2,6.539938273E-1
1.522069646E1,-6.712934375E-1,3.485097550E-4,6.248397380E-2,6.741952593E-1
1.523071746E1,-6.930346489E-1,-2.487494610E-3,6.313955784E-2,6.959093446E-1
1.524073746E1,-7.057566643E-1,1.190064359E-3,6.425994635E-2,7.086770958E-1
1.525075746E1,-7.172768712E-1,-3.721065586E-3,6.168691069E-2,7.199341854E-1
1.526077846E1,-7.289867997E-1,8.033786435E-4,6.076811999E-2,7.315156622E-1
1.527079846E1,-7.388557196E-1,1.883290475E-3,6.431172788E-2,7.416517508E-1
1.528081846E1,-7.538604736E-1,3.666202538E-4,6.216148660E-2,7.564190628E-1
1.529083946E1,-7.587679029E-1,-2.992162481E-3,6.371189654E-2,7.614439501E-1
1.530085946E1,-7.617005706E-1,-3.729325254E-3,6.053873524E-2,7.641116447E-1
1.531087946E1,-7.648641467E-1,-3.261402948E-3,6.211623549E-2,7.673892274E-1
1.532090046E1,-7.686485052E-1,4.558369983E-4,5.973776802E-2,7.709664930E-1
1.533092046E1,-7.734755278E-1,5.929714534E-4,5.876087025E-2,7.757045723E-1
1.534094046E1,-7.685755491E-1,-9.005293250E-4,5.677947775E-2,7.706705488E-1
1.535096146E1,-7.669240236E-1,-2.831828548E-3,5.838509277E-2,7.691484228E-1
1.536098146E1,-7.619359493E-1,-8.525673766E-4,5.637387186E-2,7.640190647E-1
1.537100146E1,-7.575749159E-1,-5.101223942E-4,5.626161397E-2,7.596613605E-1
1.538102246E1,-7.602050304E-1,-5.676388741E-3,5.551592633E-2,7.622505676E-1
1.539104246E1,-7.493500113E-1,-5.841236096E-3,5.337610096E-2,7.512713010E-1
1.540106246E1,-7.403306961E-1,-5.178907420E-3,5.328155681E-2,7.422636223E-1
1.541108346E1,-7.289282084E-1,-6.832174025E-3,5.191702023E-2,7.308066697E-1
1.542110346E1,-7.119111419E-1,-2.865928691E-3,5.105655268E-2,7.137453741E-1
1.543112346E1,-7.041602731E-1,-1.093321247E-3,4.794721678E-2,7.057916273E-1
1.544114446E1,-6.915084124E-1,-2.766585443E-3,4.968199879E-2,6.932963575E-1
1.545116446E1,-6.773065925E-1,-7.111007348E-3,4.886077717E-2,6.791039406E-1
1.546118446E1,-6.570412517E-1,-5.430286750E-3,4.505112395E-2,6.586063302E-1
1.547120546E1,-6.386027932E-1,-4.260668531E-3,4.675183818E-2,6.403260226E-1
1.548122546E1,-6.196951270E-1,1.422517118E-3,4.599682987E-2,6.214014663E-1
1.549124546E1,-6.015817523E-1,4.601008259E-4,4.478897527E-2,6.032469384E-1
1.550126646E1,-5.805565715E-1,-3.976991866E-3,4.396605864E-2,5.822325682E-1
1.551128646E1,-5.567522049E-1,-3.850227920E-3,4.089403898E-2,5.582653172E-1
1.552130646E1,-5.268986821E-1,-2.000662731E-3,4.115049914E-2,5.285069417E-1
1.553132746E1,-5.059431195E-1,6.387822796E-4,4.016008228E-2,5.075349056E-1
1.554134746E1,-4.820063710E-1,-9.314175695E-4,3.764019907E-2,4.834747086E-1
1.555136746E1,-4.558449984E-1,-6.413816009E-4,3.531535342E-2,4.572113823E-1
1.556138846E1,-4.270868599E-1,-3.818799043E-3,3.368682787E-2,4.284303579E-1
1.557140846E1,-3.964746296E-1,-3.068117192E-3,3.394725546E-2,3.979371325E-1
1.558142846E1,-3.684546947E-1,-3.443889087E-3,2.950856648E-2,3.696504808E-1
1.559144946E1,-3.391833901E-1,-7.013063878E-4,2.849276178E-2,3.403787618E-1
1.560146946E1,-3.110699952E-1,2.595420694E-3,2.831992321E-2,3.123672456E-1
1.561148946E1,-2.793141305E-1,-4.962389357E-5,2.445750870E-2,2.803828734E-1
1.562151046E1,-2.451305836E-1,-1.931946026E-3,2.274882421E-2,2.461914793E-1
1.563153046E1,-2.163621485E-1,-4.507765174E-3,1.904620044E-2,2.172456145E-1
1.564155046E1,-1.844944954E-1,-2.054993762E-3,1.811861992E-2,1.853934363E-1
1.565157146E1,-1.493006498E-1,-9.168870747E-7,1.569857821E-2,1.501237136E-1
1.566159146E1,-1.152105853E-1,-1.563925995E-3,1.033763587E-2,1.156840159E-1
1.567161146E1,-8.229175210E-2,-2.300548600E-3,7.702275179E-3,8.268343262E-2
1.568163246E1,-4.950024560E-2,-2.320522210E-3,7.891359739E-3,5.017900653E-2
1.569165246E1,-1.721102372E-2,8.218013681E-5,5.834579933E-3,1.817328848E-2
1.570167246E1,1.759542525E-2,-1.065642107E-3,4.517984926E-4,1.763345413E-2
1.571169346E1,4.755967110E-2,-3.085171338E-4,-1.768357586E-3,4.759353514E-2
1.572171346E1,8.310275525E-2,1.990813762E-4,-4.576128442E-3,8.322889231E-2
1.573173346E1,1.180956960E-1,1.346366480E-4,-9.438810870E-3,1.184723710E-1
1.574175446E1,1.516067833E-1,7.341143209E-4,-1.257122122E-2,1.521288640E-1
1.575177446E1,1.796676815E-1,1.150892233E-3,-1.587071642E-2,1.803709510E-1
1.576179446E1,2.114613056E-1,5.418271758E-4,-2.115522698E-2,2.125175780E-1
1.577181546E1,2.434946448E-1,6.688679568E-4,-2.047226764E-2,2.443546667E-1
1.578183546E1,2.759276927E-1,4.488928244E-5,-2.242329903E-2,2.768373131E-1
1.579185546E1,3.078502417E-1,-5.171634257E-6,-3.020759113E-2,3.093287408E-1
1.580187646E1,3.367979825E-1,1.099507674E-3,-3.461086378E-2,3.385734806E-1
1.581189646E1,3.617931008E-1,2.532023937E-3,-3.293222934E-2,3.632976613E-1
1.582191692E1,3.909893334E-1,1.098444220E-3,-3.945484012E-2,3.929765258E-1
1.583193792E1,4.180897772E-1,2.983125625E-3,-4.088736698E-2,4.200949150E-1
1.584195792E1,4.443173707E-1,-2.030802425E-4,-4.042903706E-2,4.461529717E-1
1.585197792E1,4.687221348E-1,-1.543688588E-3,-4.283194244E-2,4.706775945E-1
1.586199892E1,4.954035580E-1,1.390582300E-3,-5.160279572E-2,4.980858034E-1
1.587201892E1,5.199764967E-1,7.445524447E-3,-4.950210080E-2,5.223805614E-1
1.588203892E1,5.398287773E-1,1.184965135E-3,-5.504973233E-2,5.426296951E-1
1.589205992E1,5.604826808E-1,4.499452189E-4,-5.822274089E-2,5.634988247E-1
