"Time (s)","Gyroscope x (rad/s)","Gyroscope y (rad/s)","Gyroscope z (rad/s)","Absolute (rad/s)"
3.292241666E-2,2.093553916E-2,-2.692854591E-2,6.532582454E-3,3.472920987E-2
4.294341667E-2,2.065510675E-2,-1.743357815E-2,7.100368850E-3,2.794598933E-2
5.296341667E-2,2.266658470E-2,-2.586596878E-3,7.451056968E-3,2.399964157E-2
6.298341668E-2,2.819690667E-2,1.459265593E-2,8.709400892E-3,3.292210226E-2
7.300341668E-2,3.218840435E-2,1.965624467E-2,8.230969310E-3,3.860324060E-2
8.302341666E-2,3.367418051E-2,2.717940882E-2,5.665013101E-3,4.364359140E-2
9.304341667E-2,3.623419628E-2,2.278833836E-2,7.421787363E-3,4.344316140E-2
1.030634167E-1,3.111213818E-2,1.776907966E-2,7.285166997E-3,3.656198835E-2
1.130834167E-1,3.135401011E-2,9.033664130E-3,3.683953080E-3,3.283675605E-2
1.231034167E-1,2.491688170E-2,-7.752911188E-4,5.770006683E-3,2.558798638E-2
1.331244167E-1,2.373550460E-2,-1.261916757E-2,5.805693101E-3,2.750133889E-2
1.431444167E-1,1.944355294E-2,-1.631909795E-2,4.286626354E-3,2.574373466E-2
1.531644167E-1,1.100898720E-2,-1.321468595E-2,4.033347126E-3,1.766617143E-2
1.631844167E-1,8.110136725E-3,-7.018840872E-3,1.671123318E-3,1.085500336E-2
1.732044167E-1,3.942577168E-3,-1.417524414E-3,-1.969337463E-4,4.194290535E-3
1.832244167E-1,-6.040016189E-3,8.423388004E-3,-2.080587670E-3,1.057185443E-2
1.932444167E-1,-1.249719225E-2,1.884842291E-2,-5.833577365E-3,2.335537380E-2
2.032644167E-1,-2.161265910E-2,2.190306783E-2,-6.922543980E-3,3.154002265E-2
2.132844167E-1,-2.287038043E-2,1.715457626E-2,-9.610841051E-3,3.016126744E-2
2.233054167E-1,-2.568960190E-2,7.233767770E-3,-7.132236380E-3,2.762520294E-2
2.333254167E-1,-2.677827142E-2,1.884940430E-3,-5.888513289E-3,2.748278388E-2
2.433454167E-1,-2.916899137E-2,-1.054296643E-2,-3.706585383E-3,3.123656469E-2
2.533654167E-1,-2.934374660E-2,-1.394171268E-2,-5.856733769E-3,3.301103069E-2
2.633854167E-1,-2.987211943E-2,-9.425257333E-3,-4.561638460E-3,3.165418677E-2
2.734054167E-1,-3.893261030E-2,-7.763798349E-3,-2.571849851E-3,3.978239713E-2
2.834254167E-1,-3.039584681E-2,-1.126668183E-3,2.598894353E-4,3.041783075E-2
2.934454167E-1,-3.185313195E-2,6.882255897E-3,9.796922677E-5,3.258829635E-2
3.034664167E-1,-2.624424547E-2,6.187437102E-3,6.136687007E-3,2.765327694E-2
3.134864167E-1,-2.616286650E-2,6.092981901E-3,4.469140898E-3,2.723220947E-2
3.235064167E-1,-2.150127292E-2,6.597384810E-3,1.183784101E-2,2.541583568E-2
3.335264167E-1,-2.115560696E-2,2.892911434E-3,1.484817732E-2,2.600763373E-2
3.435464167E-1,-1.568334363E-2,2.663613297E-3,1.919418946E-2,2.492948079E-2
3.535664167E-1,-1.397587918E-2,7.099018898E-3,2.501227334E-2,2.951838556E-2
3.635864167E-1,-7.311052643E-3,5.536542274E-3,2.842591330E-2,2.986866817E-2
3.736064167E-1,-6.845360622E-4,6.506375037E-3,3.376819938E-2,3.439611599E-2
3.836264167E-1,4.744851030E-3,-2.886061557E-3,3.585026041E-2,3.627787389E-2
3.936474167E-1,8.444711566E-3,-8.521878161E-3,3.852725402E-2,4.035201188E-2
4.036674167E-1,1.187033579E-2,-1.092990860E-2,4.293718189E-2,4.586904580E-2
4.136874167E-1,1.627831906E-2,-1.459260564E-2,4.372669756E-2,4.888713420E-2
4.237074167E-1,1.945733279E-2,-1.543150004E-2,4.830493778E-2,5.431469421E-2
4.337274167E-1,1.805065759E-2,-1.803087071E-2,5.003524199E-2,5.616461501E-2
4.437474167E-1,2.145923674E-2,-1.384518016E-2,5.325899646E-2,5.906529064E-2
4.537674167E-1,2.311971225E-2,-1.593190990E-2,5.546910688E-2,6.217048066E-2
4.637874167E-1,2.464330569E-2,-1.553030405E-2,5.695461854E-2,6.397117658E-2
4.738084167E-1,2.505048178E-2,-1.258656476E-2,5.726468191E-2,6.375885855E-2
4.838284167E-1,2.316336706E-2,-6.984605454E-3,5.603590235E-2,6.103563418E-2
4.938484167E-1,2.040904388E-2,9.094893467E-4,5.405066907E-2,5.778261910E-2
5.038684167E-1,2.091051824E-2,1.220280188E-3,5.862917379E-2,6.225848437E-2
5.138884167E-1,1.713714004E-2,4.367358983E-3,5.718352273E-2,5.985574881E-2
5.239084167E-1,1.750199310E-2,2.406473504E-3,5.491983518E-2,5.769141334E-2
5.339284167E-1,1.332474872E-2,2.261954127E-3,5.824792385E-2,5.979536770E-2
5.439484167E-1,6.663917098E-3,-3.082743613E-3,5.927084386E-2,5.972389833E-2
5.539694167E-1,2.840531059E-3,-1.143823192E-2,6.087341160E-2,6.200382251E-2
5.639894167E-1,-3.999532200E-3,-1.934542507E-2,5.628105626E-2,5.964728847E-2
5.740094167E-1,-7.659409195E-3,-2.747451514E-2,5.537930503E-2,6.229271994E-2
5.840294167E-1,-1.227307040E-2,-3.167245910E-2,5.280749127E-2,6.278856629E-2
5.940494167E-1,-1.836642623E-2,-2.799867466E-2,4.884121194E-2,5.921752595E-2
6.040694167E-1,-1.861516573E-2,-1.549246907E-2,4.840179160E-2,5.412277176E-2
6.140894167E-1,-2.329456806E-2,5.134685896E-3,4.671945423E-2,5.245673745E-2
6.241094167E-1,-2.610500343E-2,3.418391570E-2,4.489092901E-2,6.217078739E-2
6.341294167E-1,-2.813086845E-2,5.843945220E-2,4.167436436E-2,7.709259354E-2
6.441504167E-1,-3.057405166E-2,7.728157938E-2,4.352632537E-2,9.381767502E-2
6.541704167E-1,-3.099042363E-2,8.903818578E-2,4.600665346E-2,1.049038467E-1
6.641904167E-1,-3.246847540E-2,8.935564011E-2,5.588005856E-2,1.102778911E-1
6.742104167E-1,-3.656350821E-2,7.854138315E-2,6.335963309E-2,1.073316454E-1
6.842304167E-1,-3.914331272E-2,5.039310455E-2,8.309099823E-2,1.047653469E-1
6.942504167E-1,-4.004834965E-2,-2.026855014E-3,9.044804424E-2,9.893850190E-2
7.042704167E-1,-5.126984417E-2,-6.418716162E-2,9.581378102E-2,1.262096243E-1
7.142904167E-1,-5.903517455E-2,-1.331605613E-1,1.010685638E-1,1.772899927E-1
7.243104167E-1,-6.464778632E-2,-2.047913373E-1,1.044542417E-1,2.388085356E-1
7.343314167E-1,-7.184480876E-2,-2.840971351E-1,1.084242612E-1,3.124558835E-1
7.443514167E-1,-6.983599067E-2,-3.626188338E-1,1.109348238E-1,3.855852945E-1
7.543714167E-1,-6.730477512E-2,-4.403086305E-1,1.137011275E-1,4.597059595E-1
7.643914167E-1,-7.083932310E-2,-5.233108401E-1,1.168774813E-1,5.408630055E-1
7.744114167E-1,-6.562633812E-2,-5.978153944E-1,1.269360632E-1,6.146566734E-1
7.844314167E-1,-6.606256962E-2,-6.701747775E-1,1.353764236E-1,6.868953862E-1
7.944514167E-1,-8.285512030E-2,-7.320348620E-1,1.403208971E-1,7.499533081E-1
8.044714167E-1,-9.473974258E-2,-7.434771061E-1,1.520649046E-1,7.647598063E-1
8.144926667E-1,-1.112942547E-1,-7.070558667E-1,1.627787650E-1,7.340376939E-1
8.245126667E-1,-1.247059256E-1,-6.228824258E-1,1.828933656E-1,6.610477043E-1
8.345326667E-1,-1.424359530E-1,-5.109835863E-1,2.088185102E-1,5.700854290E-1
8.445526667E-1,-1.614325494E-1,-3.870161176E-1,2.340775281E-1,4.802439301E-1
8.545726667E-1,-1.838502884E-1,-2.709538341E-1,2.568391562E-1,4.161529297E-1
8.645926667E-1,-2.160489708E-1,-1.695140153E-1,2.802637815E-1,3.923773011E-1
8.746126667E-1,-2.506188750E-1,-8.818611503E-2,3.102748394E-1,4.084814407E-1
8.846326667E-1,-2.700048387E-1,-6.339719519E-3,3.393011689E-1,4.336681775E-1
8.946536667E-1,-2.872003913E-1,5.743842572E-2,3.685706556E-1,4.707733697E-1
9.046736667E-1,-2.947725356E-1,1.151459292E-1,3.993317485E-1,5.095245608E-1
9.146936667E-1,-2.963189781E-1,1.851454526E-1,4.264919162E-1,5.513430239E-1
9.247136667E-1,-2.946470380E-1,2.420817018E-1,4.566633999E-1,5.949469625E-1
9.347336667E-1,-2.889050245E-1,2.686348557E-1,4.854455888E-1,6.255303499E-1
9.447536667E-1,-2.745170295E-1,2.592938244E-1,5.031974912E-1,6.291268568E-1
9.547736667E-1,-2.600994110E-1,2.274433821E-1,5.241086483E-1,6.277515997E-1
9.647936667E-1,-2.432969660E-1,1.898499429E-1,5.452358127E-1,6.265129734E-1
9.748146667E-1,-2.363713086E-1,1.509523988E-1,5.640464425E-1,6.299257190E-1
9.848346667E-1,-2.339262515E-1,1.099333242E-1,5.873565674E-1,6.417122129E-1
9.948546667E-1,-2.408344150E-1,7.183364779E-2,6.059927940E-1,6.560400558E-1
1.004874667E0,-2.497996986E-1,4.589658976E-2,6.281548738E-1,6.775580653E-1
1.014894667E0,-2.638685405E-1,3.643096238E-2,6.453616619E-1,6.981729702E-1
1.024914667E0,-2.852595747E-1,4.716190323E-2,6.686232686E-1,7.284602565E-1
1.034934667E0,-3.086610734E-1,6.216694042E-2,6.932643652E-1,7.614143857E-1
1.044954667E0,-3.235308528E-1,8.238272369E-2,7.185909748E-1,7.923585773E-1
1.054975667E0,-3.406014442E-1,1.005610600E-1,7.471685410E-1,8.272742588E-1
1.064995667E0,-3.523856699E-1,1.232293546E-1,7.759834528E-1,8.611105929E-1
1.075015667E0,-3.639792502E-1,1.594046503E-1,8.030170202E-1,8.959503736E-1
1.085035667E0,-3.743956685E-1,2.054869235E-1,8.330065608E-1,9.361073243E-1
1.095055667E0,-3.843285143E-1,2.554673553E-1,8.619519472E-1,9.777183315E-1
1.105075667E0,-3.949827552E-1,3.070091009E-1,8.871737123E-1,1.018500447E0
1.115095667E0,-4.092168808E-1,3.542523682E-1,9.124416709E-1,1.060897261E0
1.125115667E0,-4.254746735E-1,3.854651451E-1,9.317889810E-1,1.094460041E0
1.135135667E0,-4.419126213E-1,3.990842402E-1,9.502374530E-1,1.121385845E0
1.145156667E0,-4.561916888E-1,4.053365290E-1,9.722628593E-1,1.147912726E0
1.155176667E0,-4.707942605E-1,3.949484825E-1,9.896431565E-1,1.164914210E0
1.165196667E0,-4.755493402E-1,3.903167248E-1,1.006379962E0,1.179531665E0
1.175216667E0,-4.822922349E-1,3.646652997E-1,1.023355722E0,1.188630942E0
1.185236667E0,-4.968184233E-1,3.298186362E-1,1.036113858E0,1.195466773E0
1.195256667E0,-5.033949614E-1,2.908673286E-1,1.051665425E0,1.201669862E0
1.205276667E0,-5.036489964E-1,2.572422624E-1,1.056961894E0,1.198751158E0
1.215296667E0,-5.087206364E-1,2.210905403E-1,1.067602515E0,1.203101344E0
1.225317667E0,-5.154347420E-1,1.957228780E-1,1.074336290E0,1.207550779E0
1.235337667E0,-5.124184489E-1,1.962239444E-1,1.082943439E0,1.214019356E0
1.245357667E0,-5.087766051E-1,1.822010726E-1,1.089802146E0,1.216437250E0
1.255377667E0,-4.954817295E-1,1.695887744E-1,1.098672628E0,1.217104778E0
1.265397667E0,-4.859095514E-1,1.625100821E-1,1.105624557E0,1.218574281E0
1.275417667E0,-4.725502133E-1,1.784712970E-1,1.117987275E0,1.226805305E0
1.285437667E0,-4.574066699E-1,1.782958061E-1,1.126461983E0,1.228790810E0
1.295457667E0,-4.438114464E-1,2.024474591E-1,1.130815625E0,1.231542753E0
1.305478667E0,-4.290106595E-1,2.055463046E-1,1.137526035E0,1.232990231E0
1.315498667E0,-4.094600081E-1,2.212080508E-1,1.142739534E0,1.233873634E0
1.325518667E0,-3.926743865E-1,2.361622304E-1,1.144984126E0,1.233269809E0
1.335538667E0,-3.728799820E-1,2.582874596E-1,1.148362398E0,1.234701620E0
1.345558667E0,-3.534151912E-1,2.781594396E-1,1.158203840E0,1.242461712E0
1.355578667E0,-3.318383098E-1,3.046737313E-1,1.164562106E0,1.248658338E0
1.365598667E0,-3.040958941E-1,3.416831493E-1,1.174812436E0,1.260716442E0
1.375618667E0,-2.742109597E-1,3.672984838E-1,1.181247950E0,1.267062171E0
1.385639667E0,-2.439609021E-1,3.948792517E-1,1.188757539E0,1.276162619E0
1.395659667E0,-2.147335559E-1,4.132493138E-1,1.195446968E0,1.282957111E0
1.405679667E0,-1.792527884E-1,4.203959107E-1,1.202991366E0,1.286877038E0
1.415699667E0,-1.518103033E-1,4.158903658E-1,1.209063530E0,1.287573603E0
1.425719667E0,-1.250799000E-1,3.964026868E-1,1.214619756E0,1.283776158E0
1.435739667E0,-9.908927977E-2,3.691623807E-1,1.218067884E0,1.276631865E0
1.445759667E0,-7.963116467E-2,3.489575088E-1,1.219775438E0,1.271205957E0
1.455779667E0,-6.796597689E-2,3.226490915E-1,1.220355749E0,1.264116278E0
1.465800667E0,-5.641610920E-2,2.936272919E-1,1.228082180E0,1.263956330E0
1.475820667E0,-4.374086112E-2,2.513232231E-1,1.237643480E0,1.263660560E0
1.485840667E0,-3.075102903E-2,2.010435313E-1,1.252580881E0,1.268985024E0
1.495860667E0,-2.322818711E-2,1.584710181E-1,1.273291826E0,1.283325636E0
1.505880667E0,-9.659915231E-3,1.255333126E-1,1.293852448E0,1.299963878E0
1.515900667E0,-1.849020831E-3,9.530913085E-2,1.319290042E0,1.322729551E0
1.525920667E0,9.304564446E-3,6.805247813E-2,1.347553968E0,1.349303306E0
1.535940667E0,1.376245730E-2,4.325181618E-2,1.377954602E0,1.378701930E0
1.545961667E0,8.176477626E-3,1.884287968E-2,1.405357242E0,1.405507341E0
1.555981667E0,-8.285784163E-3,-7.370312698E-3,1.429532051E0,1.429575063E0
1.566001667E0,-2.874658257E-2,-3.280350193E-2,1.454900265E0,1.455553921E0
1.576021667E0,-5.770726129E-2,-5.763448030E-2,1.476838470E0,1.479088816E0
1.586041667E0,-9.334807843E-2,-7.856693119E-2,1.489639401E0,1.494627771E0
1.596061667E0,-1.334630698E-1,-9.832441807E-2,1.495783210E0,1.504941026E0
1.606081667E0,-1.675347537E-1,-1.226215065E-1,1.515582204E0,1.529736364E0
1.616101667E0,-1.965385079E-1,-1.360394657E-1,1.538238883E0,1.556699387E0
1.626122667E0,-2.232779860E-1,-1.435304135E-1,1.578352213E0,1.600515463E0
1.636142667E0,-2.520488501E-1,-1.255258173E-1,1.592238784E0,1.616944556E0
1.646162667E0,-2.848565876E-1,-8.226674795E-2,1.604592681E0,1.631756344E0
1.656182667E0,-3.232721090E-1,-4.199985787E-2,1.606828690E0,1.639563138E0
1.666202667E0,-3.608327806E-1,-1.623217762E-2,1.604502916E0,1.644656009E0
1.676222667E0,-3.997503519E-1,-1.665483415E-2,1.597261667E0,1.646609414E0
1.686242667E0,-4.377864301E-1,-4.052714258E-2,1.599115252E0,1.658453798E0
1.696262667E0,-4.809580743E-1,-6.333509088E-2,1.586521029E0,1.659030132E0
1.706283667E0,-5.200221539E-1,-7.787089050E-2,1.560228109E0,1.646450324E0
1.716303667E0,-5.444599986E-1,-5.149196833E-2,1.526854873E0,1.621842753E0
1.726323667E0,-5.661154985E-1,1.687617041E-2,1.493342757E0,1.597136235E0
1.736343667E0,-5.812690258E-1,1.145143732E-1,1.562131405E0,1.670700975E0
1.746363667E0,-5.697599053E-1,1.563832462E-1,1.650978923E0,1.753514606E0
1.756383667E0,-5.130669475E-1,1.805355102E-1,1.613639951E0,1.702840173E0
1.766403667E0,-4.919374287E-1,1.398035288E-1,1.497895479E0,1.582794468E0
1.776423667E0,-4.664068520E-1,9.298101068E-2,1.401884079E0,1.480357994E0
1.786444667E0,-4.994196296E-1,4.402143881E-3,1.420445323E0,1.505690626E0
1.796464667E0,-5.179896951E-1,-5.319821090E-2,1.439317346E0,1.530613536E0
1.806484667E0,-5.275741816E-1,-4.336075857E-2,1.441404462E0,1.535532968E0
1.816504917E0,-5.312684178E-1,2.426117286E-2,1.437637329E0,1.532852187E0
1.826524917E0,-5.287807584E-1,1.304821372E-1,1.441843271E0,1.541280863E0
1.836544917E0,-5.280903578E-1,2.822351456E-1,1.454445958E0,1.572879254E0
1.846564917E0,-5.437614322E-1,4.433467984E-1,1.465882540E0,1.625129072E0
1.856584917E0,-5.606288910E-1,5.800102353E-1,1.451014400E0,1.660168490E0
1.866605917E0,-5.702285171E-1,6.804289818E-1,1.404582262E0,1.661624353E0
1.876625917E0,-5.484951735E-1,7.590954304E-1,1.337257266E0,1.632583788E0
1.886645917E0,-5.086976886E-1,8.674589396E-1,1.258961320E0,1.611285808E0
1.896665917E0,-4.819388688E-1,9.633958340E-1,1.188800931E0,1.604258165E0
1.906685917E0,-4.799617529E-1,1.045628428E0,1.125356436E0,1.609387835E0
1.916705917E0,-4.838794172E-1,1.048250437E0,1.065161347E0,1.570839573E0
1.926725917E0,-4.833140075E-1,9.706459045E-1,1.009008646E0,1.481163175E0
1.936745917E0,-4.834573865E-1,7.911294103E-1,9.556590319E-1,1.331503276E0
1.946766917E0,-4.662467241E-1,5.538641214E-1,9.100726247E-1,1.162920313E0
1.956786917E0,-4.369033873E-1,3.244712055E-1,8.805949688E-1,1.035187728E0
1.966806917E0,-4.014447033E-1,1.796205193E-1,8.610388637E-1,9.668553695E-1
1.976826917E0,-3.600567281E-1,1.520537883E-1,8.388841152E-1,9.254662397E-1
1.986846917E0,-3.256947696E-1,1.735689342E-1,8.106966615E-1,8.907481882E-1
1.996866917E0,-2.988696694E-1,2.470547855E-1,7.797770500E-1,8.708681841E-1
2.006886917E0,-2.850361466E-1,3.542579412E-1,7.529683113E-1,8.796053500E-1
2.016906917E0,-2.708884776E-1,4.788867831E-1,7.324855328E-1,9.161048925E-1
2.026927917E0,-2.573798597E-1,5.755355358E-1,7.126175761E-1,9.514774590E-1
2.036947917E0,-2.520803213E-1,6.959125996E-1,7.033013701E-1,1.021015011E0
2.046967917E0,-2.518883049E-1,7.945164442E-1,6.868259907E-1,1.080015759E0
2.056987917E0,-2.524075508E-1,9.012028575E-1,6.749798656E-1,1.153895134E0
2.067007917E0,-2.534469962E-1,1.007429838E0,6.698338389E-1,1.236053247E0
2.077027917E0,-2.518060505E-1,9.168947935E-1,6.730923057E-1,1.164970215E0
2.087047917E0,-2.509002984E-1,7.703256011E-1,6.632037163E-1,1.046991720E0
2.097067917E0,-2.237358391E-1,5.440154672E-1,6.513305902E-1,8.776343726E-1
2.107088917E0,-2.215392739E-1,3.537834585E-1,6.521806717E-1,7.743268134E-1
2.117108917E0,-1.966829896E-1,2.315467298E-1,6.545018554E-1,7.215751972E-1
2.127128917E0,-1.579614282E-1,1.492270827E-1,6.534944177E-1,6.886766214E-1
2.137148917E0,-1.159273461E-1,7.882940024E-2,6.444727778E-1,6.595440738E-1
2.147168917E0,-8.347885311E-2,3.621296585E-2,6.391571164E-1,6.456019805E-1
2.157188917E0,-4.251538217E-2,-2.038650028E-2,6.348739266E-1,6.366223919E-1
2.167208917E0,-1.240861230E-2,-1.013234258E-1,6.305199265E-1,6.387298240E-1
2.177229917E0,-5.382571369E-3,-2.085171044E-1,6.279826760E-1,6.617179129E-1
2.187249917E0,-3.810855746E-2,-3.171910942E-1,6.323961020E-1,7.085106083E-1
2.197269917E0,-1.009073034E-1,-4.229041040E-1,6.364608407E-1,7.707869789E-1
2.207289917E0,-1.716592312E-1,-5.059385300E-1,6.359724402E-1,8.306031739E-1
2.217309917E0,-2.300784290E-1,-5.369586945E-1,6.298030615E-1,8.590184045E-1
2.227329917E0,-2.720764577E-1,-4.948692620E-1,6.109697223E-1,8.319886939E-1
2.237349917E0,-3.111890554E-1,-3.892579675E-1,5.960433483E-1,7.769350465E-1
2.247369917E0,-3.302786052E-1,-2.101326734E-1,5.737356544E-1,6.945590677E-1
2.257390917E0,-3.348443210E-1,2.577601466E-3,5.487694144E-1,6.428648641E-1
2.267410917E0,-3.283829689E-1,2.343003154E-1,5.238763094E-1,6.611946760E-1
2.277430917E0,-3.212531209E-1,4.613983333E-1,5.045011044E-1,7.553895379E-1
2.287450917E0,-3.184978068E-1,6.243934035E-1,4.899794459E-1,8.552121566E-1
2.297470917E0,-3.075920939E-1,7.120176554E-1,4.643697739E-1,9.040029451E-1
2.307490917E0,-2.960049510E-1,7.413241863E-1,4.372068644E-1,9.101265420E-1
2.317510917E0,-2.842653096E-1,7.178793550E-1,4.100617766E-1,8.742472163E-1
2.327530917E0,-2.761996686E-1,6.534159780E-1,3.839793205E-1,8.066466487E-1
2.337551917E0,-2.716027200E-1,5.727311373E-1,3.573058546E-1,7.276375931E-1
2.347571917E0,-2.674513757E-1,5.067137480E-1,3.376884758E-1,6.650733550E-1
2.357591917E0,-2.716096044E-1,4.565384686E-1,3.188052773E-1,6.195449583E-1
2.367611917E0,-2.876775265E-1,4.337548614E-1,3.081475794E-1,6.048607854E-1
2.377631917E0,-3.123772144E-1,4.376433790E-1,2.963349223E-1,6.139426988E-1
2.387651917E0,-3.481788933E-1,4.509906173E-1,2.870460749E-1,6.379784696E-1
2.397671917E0,-3.637098670E-1,4.920758903E-1,2.835752368E-1,6.744171292E-1
2.407692917E0,-3.843877017E-1,5.218929052E-1,2.812907696E-1,7.065766815E-1
2.417712917E0,-4.042305052E-1,5.349168181E-1,2.805469930E-1,7.268045948E-1
2.427732917E0,-4.161819518E-1,5.419963002E-1,2.739838958E-1,7.362299787E-1
2.437752917E0,-4.238553941E-1,5.269825459E-1,2.671005130E-1,7.271221925E-1
2.447772917E0,-4.307534993E-1,4.895651042E-1,2.594726980E-1,7.018181028E-1
2.457792917E0,-4.392424226E-1,4.105619788E-1,2.448361665E-1,6.491839436E-1
2.467812917E0,-4.472268522E-1,2.993167043E-1,2.268212140E-1,5.839950427E-1
2.477832917E0,-4.556958079E-1,1.678314358E-1,2.017102987E-1,5.258451339E-1
2.487853917E0,-4.572945237E-1,4.523042962E-2,1.840716451E-1,4.950216599E-1
2.497873917E0,-4.598590136E-1,-5.694568157E-2,1.622003615E-1,4.909399966E-1
2.507893917E0,-4.599809945E-1,-1.131144166E-1,1.378441602E-1,4.933339630E-1
2.517913917E0,-4.601144195E-1,-1.199114621E-1,1.220431402E-1,4.908956771E-1
2.527933917E0,-4.636500478E-1,-8.586507291E-2,1.081057489E-1,4.837675377E-1
2.537953917E0,-4.638863802E-1,-2.775403112E-2,9.519264102E-2,4.743653643E-1
2.547973917E0,-4.582034647E-1,4.088281840E-2,7.912898064E-2,4.667796220E-1
2.557993917E0,-4.526201785E-1,1.163770184E-1,6.250213087E-2,4.715030782E-1
2.568014917E0,-4.456922412E-1,1.778206825E-1,5.146626011E-2,4.826080655E-1
2.578034917E0,-4.346907139E-1,2.171162665E-1,4.113423452E-2,4.876346123E-1
2.588054917E0,-4.259728789E-1,2.324552834E-1,2.655422688E-2,4.859974067E-1
2.598074917E0,-4.112269282E-1,2.304503471E-1,1.215970144E-2,4.715536102E-1
2.608094917E0,-3.951712549E-1,2.074097395E-1,1.067369943E-3,4.462961573E-1
2.618114917E0,-3.819139600E-1,1.564252824E-1,-8.665089495E-3,4.127980445E-1
2.628134917E0,-3.683459461E-1,8.799137175E-2,-1.601488143E-2,3.790484058E-1
2.638155917E0,-3.549616933E-1,2.056744415E-3,-2.906633541E-2,3.561557044E-1
2.648175917E0,-3.371813595E-1,-1.009428725E-1,-3.906996921E-2,3.541287834E-1
2.658195917E0,-3.177449703E-1,-2.029702365E-1,-5.717549101E-2,3.813499965E-1
2.668215917E0,-3.062190711E-1,-2.976123393E-1,-6.993496418E-2,4.327055849E-1
2.678235917E0,-3.010292351E-1,-3.799415827E-1,-9.239321947E-2,4.934680472E-1
2.688255917E0,-3.050082624E-1,-4.454934299E-1,-1.090267897E-1,5.508005783E-1
2.698275917E0,-3.094815016E-1,-4.721865356E-1,-1.256315857E-1,5.783789584E-1
2.708295917E0,-3.174707294E-1,-4.667925835E-1,-1.373620182E-1,5.809916557E-1
2.718316917E0,-3.263366818E-1,-4.277253747E-1,-1.475188285E-1,5.578587911E-1
2.728336917E0,-3.272176683E-1,-3.773721755E-1,-1.599193066E-1,5.244571917E-1
2.738356917E0,-3.312035799E-1,-3.380490839E-1,-1.732320786E-1,5.039666135E-1
2.748376917E0,-3.315220773E-1,-3.212527931E-1,-1.737705767E-1,4.932610446E-1
2.758396917E0,-3.272280097E-1,-2.999511361E-1,-1.639524549E-1,4.732116460E-1
2.768416917E0,-3.031453192E-1,-2.286015898E-1,-1.558314115E-1,4.104134504E-1
2.778436917E0,-3.009387851E-1,-1.912872046E-1,-1.236874685E-1,3.774301748E-1
2.788457917E0,-2.988047898E-1,-1.326803416E-1,-1.029161438E-1,3.427537135E-1
2.798477917E0,-2.917398512E-1,-3.858400881E-2,-8.808475733E-2,3.071803884E-1
2.808497917E0,-3.343762457E-1,7.233398408E-2,-9.812834114E-2,3.559056761E-1
2.818517042E0,-7.216888666E-1,-6.084295511E-1,-1.083079651E-1,9.501325982E-1
2.828537042E0,-6.306207776E-1,-1.988593191E-1,-1.064283103E-1,6.697421737E-1
2.838557042E0,-4.806517661E-1,2.760018706E-1,-8.824083209E-2,5.612393404E-1
2.848577042E0,-4.502882659E-1,4.755504131E-1,-1.087346599E-1,6.638756993E-1
2.858597042E0,-6.235517263E-1,1.507062316E-1,-1.583918780E-1,6.607700891E-1
2.868618042E0,-4.559060037E-1,5.169995427E-1,-1.480177939E-1,7.050163677E-1
2.878638042E0,-4.415794015E-1,5.491479635E-1,-1.003069058E-1,7.117705593E-1
2.888658042E0,-6.636604667E-1,1.649411470E-1,1.405721717E-2,6.839944461E-1
2.898678042E0,-7.010019422E-1,-1.210505366E-1,-3.241659328E-2,7.121150124E-1
2.908698042E0,-7.721384168E-1,-2.957427204E-1,-4.834096506E-2,8.282501676E-1
2.918718042E0,-5.948583484E-1,-3.626250848E-2,-5.438281596E-2,5.984387310E-1
2.928738042E0,-1.967192739E-1,4.721815586E-1,-5.880765617E-2,5.148905102E-1
2.938759042E0,-2.200638056E-1,4.854989052E-1,-1.022736505E-1,5.427680582E-1
2.948779042E0,-3.405816853E-1,2.436990738E-1,-9.837105870E-2,4.301883170E-1
2.958799042E0,-4.119018912E-1,2.882117592E-2,-9.414733201E-2,4.235062553E-1
2.968819042E0,-3.538731933E-1,4.435619339E-2,-9.134142846E-2,3.681534535E-1
2.978839042E0,-2.755811810E-2,3.967203796E-1,-9.619662166E-2,4.091458169E-1
2.988859042E0,1.511263996E-1,4.739901423E-1,-1.057714820E-1,5.086191602E-1
2.998879042E0,1.325037181E-1,2.081267834E-1,-1.123814508E-1,2.711154436E-1
3.008899042E0,8.549040556E-2,-1.165458411E-1,-1.225861534E-1,1.895228417E-1
3.018920042E0,1.224908307E-1,-2.879021168E-1,-1.340358704E-1,3.403780942E-1
3.028940042E0,2.648546398E-1,-2.180141062E-1,-1.490049660E-1,3.740061638E-1
3.038960042E0,4.396756589E-1,-7.196959853E-2,-1.498684734E-1,4.700583661E-1
3.048980042E0,4.859326184E-1,-1.206114367E-1,-1.514964551E-1,5.230954064E-1
3.059000042E0,4.528699815E-1,-2.738496065E-1,-1.516634971E-1,5.505330540E-1
3.069020042E0,4.232372642E-1,-3.830181658E-1,-1.512003690E-1,5.905033859E-1
3.079040042E0,4.567153454E-1,-3.643632233E-1,-1.513652802E-1,6.035403162E-1
3.089061042E0,5.327701569E-1,-2.419531494E-1,-1.473947763E-1,6.034157660E-1
3.099081042E0,5.948467255E-1,-1.329610944E-1,-1.473729014E-1,6.270885516E-1
3.109101042E0,5.853406191E-1,-1.064892709E-1,-1.378095001E-1,6.107004695E-1
3.119121042E0,5.394162536E-1,-1.430800408E-1,-1.200734898E-1,5.708409898E-1
3.129141042E0,5.093065500E-1,-1.805976033E-1,-1.016390845E-1,5.498537621E-1
3.139161042E0,4.971401989E-1,-1.889752001E-1,-9.088954329E-2,5.395562183E-1
3.149181042E0,4.954788983E-1,-1.673993468E-1,-7.380962372E-2,5.281758614E-1
3.159201042E0,4.927987456E-1,-9.844607860E-2,-4.840981588E-2,5.048621043E-1
3.169222042E0,5.233039260E-1,5.886125565E-2,-8.343086578E-3,5.266699664E-1
3.179242042E0,6.811200976E-1,4.695877731E-1,9.052864462E-2,8.322455765E-1
3.189262042E0,6.245641112E-1,4.985166192E-1,-5.874126405E-2,8.012800289E-1
3.199282042E0,3.990439177E-1,2.340765595E-1,-8.161281049E-2,4.697749831E-1
3.209302042E0,3.151546121E-1,1.978988498E-1,-4.706868157E-2,3.751024461E-1
3.219322042E0,3.707868159E-1,4.153192341E-1,-5.609124154E-2,5.595705107E-1
3.229342042E0,3.528493643E-1,4.797427058E-1,-5.030392855E-2,5.976505860E-1
3.239363042E0,2.483894825E-1,3.646059632E-1,-4.180438817E-2,4.431505955E-1
3.249383042E0,2.694782615E-1,5.258313417E-1,-3.041777574E-2,5.916437902E-1
3.259403042E0,2.680999637E-1,6.534400582E-1,-1.789748296E-2,7.065280038E-1
3.269423042E0,2.244312912E-1,6.780881286E-1,-5.945747718E-3,7.142886437E-1
3.279443042E0,2.280061096E-1,7.513517141E-1,9.908991633E-4,7.851860711E-1
3.289463042E0,2.170799524E-1,7.618307471E-1,6.030132528E-3,7.921781084E-1
3.299483042E0,2.085722685E-1,7.318047285E-1,1.197072305E-2,7.610412933E-1
3.309504042E0,1.961400956E-1,6.721480489E-1,1.753193699E-2,7.004008178E-1
3.319524042E0,1.876308769E-1,5.966269970E-1,2.846190147E-2,6.260824222E-1
3.329544042E0,1.769705117E-1,5.055881739E-1,3.539570794E-2,5.368340709E-1
3.339564042E0,1.632519811E-1,3.803725541E-1,4.210478067E-2,4.160616562E-1
3.349584042E0,1.459704638E-1,2.553219497E-1,5.291055515E-2,2.988246997E-1
3.359604042E0,1.277171969E-1,1.536506116E-1,7.105372846E-2,2.120585419E-1
3.369624042E0,9.655928612E-2,4.942434281E-2,8.782792091E-2,1.395715053E-1
3.379645042E0,5.810665339E-2,-6.499652565E-2,1.037855074E-1,1.355446903E-1
3.389665042E0,-3.529546782E-3,-1.821561605E-1,1.249304712E-1,2.209093641E-1
3.399685042E0,-7.560189068E-2,-2.905434072E-1,1.444272697E-1,3.331521478E-1
3.409705042E0,-1.373118758E-1,-3.430273831E-1,1.520372480E-1,3.995468203E-1
3.419725042E0,-1.821376979E-1,-3.197563887E-1,1.570858359E-1,4.001177938E-1
3.429745042E0,-2.232308090E-1,-2.612294257E-1,1.539201289E-1,3.765158868E-1
3.439765042E0,-2.811150551E-1,-2.574479878E-1,1.422016770E-1,4.068494286E-1
3.449785042E0,-3.817897141E-1,-3.564976156E-1,1.044548303E-1,5.326957361E-1
3.459806042E0,-4.739312232E-1,-4.703031778E-1,7.939375937E-2,6.723832630E-1
3.469826042E0,-4.074057043E-1,-2.639654577E-1,4.352923110E-2,4.873930290E-1
3.479846042E0,-1.089914069E-1,2.883827686E-1,7.917439565E-3,3.083933103E-1
3.489866042E0,-1.256800890E-1,3.579820693E-1,-9.777935222E-3,3.795289906E-1
3.499886042E0,-2.974946201E-1,1.876371801E-1,-5.607541651E-2,3.561673942E-1
3.509906042E0,-4.123508930E-1,6.483562291E-2,-7.344269007E-2,4.238286749E-1
3.519926042E0,-4.235485494E-1,7.762870938E-2,-8.780306578E-2,4.394644111E-1
3.529947042E0,-3.241460621E-1,2.726741135E-1,-1.001721174E-1,4.352657750E-1
3.539967042E0,-2.948509455E-1,3.379129469E-1,-1.071863472E-1,4.610977692E-1
3.549987042E0,-3.703214824E-1,2.099589705E-1,-1.095203385E-1,4.395628217E-1
3.560007042E0,-4.418059587E-1,9.184981138E-2,-1.176941544E-1,4.663483752E-1
3.570027042E0,-4.186596274E-1,1.034614593E-1,-1.228329912E-1,4.484061785E-1
3.580047042E0,-3.462629020E-1,2.018940300E-1,-1.296139359E-1,4.212587911E-1
3.590067042E0,-3.190406263E-1,2.076161057E-1,-1.339141279E-1,4.035150087E-1
3.600088042E0,-3.335219622E-1,9.834106266E-2,-1.430027783E-1,3.759756089E-1
3.610108042E0,-3.247593641E-1,1.575270854E-2,-1.506540477E-1,3.583482029E-1
3.620128042E0,-2.831241190E-1,-8.340144530E-3,-1.602174640E-1,3.254204366E-1
3.630148042E0,-2.482867688E-1,-1.645106822E-2,-1.665059924E-1,2.994014073E-1
3.640168042E0,-2.223403305E-1,-9.612440132E-3,-1.704256684E-1,2.803079200E-1
3.650188042E0,-1.872009784E-1,1.507293247E-2,-1.806735247E-1,2.606037646E-1
3.660208042E0,-1.619138718E-1,2.048108168E-2,-1.855361611E-1,2.471016868E-1
3.670228042E0,-1.399249434E-1,5.048863124E-3,-1.925503910E-1,2.380758994E-1
3.680249042E0,-1.212804839E-1,-3.381879628E-2,-1.897885352E-1,2.277550326E-1
3.690269042E0,-1.102581918E-1,-9.509653598E-2,-1.909142584E-1,2.401009664E-1
3.700289042E0,-1.082538143E-1,-1.908284873E-1,-1.880968362E-1,2.889893072E-1
3.710309042E0,-1.067970693E-1,-2.747236490E-1,-1.937997341E-1,3.527563384E-1
3.720329042E0,-1.027195826E-1,-3.203257918E-1,-1.920371056E-1,3.873476158E-1
3.730349042E0,-9.684145451E-2,-3.257929981E-1,-1.973288059E-1,3.930114535E-1
3.740369042E0,-8.951006085E-2,-2.839466631E-1,-1.989035159E-1,3.580507885E-1
3.750390042E0,-7.561235130E-2,-2.028166354E-1,-2.108659148E-1,3.021857860E-1
3.760410042E0,-5.271312594E-2,-1.111354232E-1,-2.244164497E-1,2.559150226E-1
3.770430042E0,-3.056894429E-2,-1.807285100E-2,-2.335457653E-1,2.362302114E-1
3.780450042E0,-4.338295199E-3,5.967179313E-2,-2.497575134E-1,2.568235955E-1
3.790470042E0,1.481356192E-2,8.478832990E-2,-2.625481486E-1,2.762970012E-1
3.800490042E0,2.427885123E-2,7.656203955E-2,-2.772547603E-1,2.886544831E-1
3.810510042E0,2.847945504E-2,4.412527010E-2,-2.905173004E-1,2.952260501E-1
3.820531292E0,2.349287271E-2,-9.113097563E-3,-3.020023406E-1,3.030517733E-1
3.830551292E0,1.300214790E-2,-7.322710007E-2,-3.169367909E-1,3.255459929E-1
3.840571292E0,2.802725881E-3,-1.218027771E-1,-3.301141560E-1,3.518794222E-1
3.850591292E0,-1.230831537E-2,-1.405085623E-1,-3.414112926E-1,3.693992710E-1
3.860611292E0,-2.569895610E-2,-1.347784996E-1,-3.518245220E-1,3.776323273E-1
3.870631292E0,-3.724668920E-2,-1.271517426E-1,-3.665834665E-1,3.897926621E-1
3.880651292E0,-5.660980940E-2,-1.544277519E-1,-3.772506714E-1,4.115466804E-1
3.890672292E0,-8.797945082E-2,-2.202709466E-1,-3.882231712E-1,4.549471446E-1
3.900692292E0,-1.138496101E-1,-2.910386920E-1,-3.926509619E-1,5.018366585E-1
3.910712292E0,-1.411531270E-1,-3.475869000E-1,-3.950217068E-1,5.447779430E-1
3.920732292E0,-1.736941636E-1,-3.975654840E-1,-3.993762732E-1,5.896858351E-1
3.930752292E0,-2.206251919E-1,-4.572730064E-1,-4.072789550E-1,6.508841870E-1
3.940772292E0,-2.702560723E-1,-4.920835495E-1,-4.137695432E-1,6.974165177E-1
3.950792292E0,-3.241267502E-1,-4.921402633E-1,-4.215076268E-1,7.245197502E-1
3.960813292E0,-3.784380555E-1,-4.348649383E-1,-4.281338155E-1,7.180678522E-1
3.970833292E0,-4.210044146E-1,-3.097591996E-1,-4.283239543E-1,6.757639297E-1
3.980853292E0,-4.450462461E-1,-1.188199446E-1,-4.369030893E-1,6.348768777E-1
3.990873292E0,-4.295991063E-1,1.176913977E-1,-4.526876509E-1,6.350848499E-1
4.000893292E0,-3.916338086E-1,3.524204493E-1,-4.635082781E-1,7.017244025E-1
4.010913292E0,-3.580017984E-1,5.047753453E-1,-4.809679687E-1,7.837688587E-1
4.020933292E0,-3.175697029E-1,5.956311822E-1,-4.977213740E-1,8.386617838E-1
4.030953292E0,-2.717516124E-1,6.099507809E-1,-5.110238791E-1,8.408533159E-1
4.040974292E0,-2.488992810E-1,5.411950350E-1,-5.213772655E-1,7.916294404E-1
4.050994292E0,-2.399731576E-1,4.180587232E-1,-5.141723156E-1,7.047931488E-1
4.061014292E0,-2.300756127E-1,2.589707375E-1,-5.304487348E-1,6.335428088E-1
4.071034292E0,-2.249295861E-1,8.122659475E-2,-5.497806668E-1,5.995413747E-1
4.081054292E0,-2.204245627E-1,-7.202353328E-2,-5.622794032E-1,6.082207695E-1
4.091074292E0,-1.935769767E-1,-1.732561439E-1,-5.568394065E-1,6.144589994E-1
4.101094292E0,-1.504931599E-1,-2.084996253E-1,-5.577297211E-1,6.141520387E-1
4.111115292E0,-1.091542318E-1,-2.186880708E-1,-5.566647649E-1,6.079595209E-1
4.121135292E0,-7.121145725E-2,-2.248719782E-1,-5.558241010E-1,6.038037011E-1
4.131155292E0,-3.176817670E-2,-1.986837834E-1,-5.538783669E-1,5.892925489E-1
4.141175292E0,1.969368756E-2,-2.008509338E-1,-5.565324426E-1,5.919943400E-1
4.151195292E0,6.829344481E-2,-2.349194288E-1,-5.620172024E-1,6.129555191E-1
4.161215292E0,1.063329279E-1,-2.600544691E-1,-5.607036352E-1,6.271551523E-1
4.171235292E0,1.503203511E-1,-2.791962028E-1,-5.635806918E-1,6.466605940E-1
4.181256292E0,1.864702702E-1,-2.939571142E-1,-5.631420612E-1,6.620505478E-1
4.191276292E0,2.075790167E-1,-3.132602572E-1,-5.649636388E-1,6.785314658E-1
4.201296292E0,2.162714601E-1,-3.308856189E-1,-5.658463240E-1,6.902468396E-1
4.211316292E0,2.166054249E-1,-3.393486142E-1,-5.531821847E-1,6.841680506E-1
4.221336292E0,2.094089538E-1,-3.322486579E-1,-5.435868502E-1,6.706175842E-1
4.231356292E0,2.080912292E-1,-2.856931388E-1,-5.275306702E-1,6.349890843E-1
4.241376292E0,2.038837522E-1,-2.303567678E-1,-5.104799271E-1,5.960055208E-1
4.251397292E0,1.913202852E-1,-1.907457113E-1,-4.924508333E-1,5.616895950E-1
4.261417292E0,1.699181944E-1,-1.737177819E-1,-4.792241454E-1,5.373135417E-1
4.271437292E0,1.474786699E-1,-1.592112780E-1,-4.756438136E-1,5.228147153E-1
4.281457292E0,1.135474592E-1,-1.325832009E-1,-4.634104669E-1,4.951975278E-1
4.291477292E0,8.142361045E-2,-8.872174472E-2,-4.584932029E-1,4.740436367E-1
4.301497292E0,5.990867317E-2,-4.024465010E-2,-4.526552260E-1,4.583725936E-1
4.311517292E0,3.609388322E-2,1.392164733E-2,-4.522522688E-1,4.539038393E-1
4.321538292E0,1.805704832E-2,7.631337643E-2,-4.554190040E-1,4.621214749E-1
4.331558292E0,2.430418972E-3,1.691967100E-1,-4.608491957E-1,4.909332081E-1
4.341578292E0,-5.068583414E-3,2.677170932E-1,-4.685280025E-1,5.396449033E-1
4.351598292E0,-1.693749428E-2,3.833374381E-1,-4.759164155E-1,6.113353455E-1
4.361618292E0,-1.871782541E-2,4.919491410E-1,-4.844415784E-1,6.906865839E-1
4.371638292E0,-2.999418043E-2,5.589790940E-1,-4.951663911E-1,7.473600426E-1
4.381658292E0,-4.500555992E-2,5.786349177E-1,-5.018318295E-1,7.672542301E-1
4.391679292E0,-6.221890077E-2,5.572465658E-1,-5.083482862E-1,7.568440439E-1
4.401699292E0,-7.707234472E-2,5.242938399E-1,-5.098837614E-1,7.353948783E-1
4.411719292E0,-7.241580635E-2,4.960472584E-1,-5.126233697E-1,7.170004538E-1
4.421739292E0,-6.240504980E-2,4.583410323E-1,-5.159903765E-1,6.929768832E-1
4.431759292E0,-5.558042973E-2,3.635844290E-1,-5.239335299E-1,6.401477680E-1
4.441779292E0,-6.437106431E-2,2.435995191E-1,-4.763485193E-1,5.388805726E-1
4.451799292E0,-7.837688923E-2,1.025254950E-1,-4.580091834E-1,4.758432788E-1
4.461820292E0,-1.296105236E-1,-2.364455722E-2,-4.050897062E-1,4.259760826E-1
4.471840292E0,-1.897953004E-1,-1.298215836E-1,-3.264902532E-1,3.993391855E-1
4.481860292E0,-3.798778355E-2,-5.259344727E-2,-2.860876024E-1,2.933517660E-1
4.491880292E0,-6.931374222E-2,-3.992745280E-2,-2.486979067E-1,2.612455649E-1
4.501900292E0,-5.520931482E-1,-5.881639123E-1,-2.246503383E-1,8.373836675E-1
4.511920292E0,-1.068823636E-1,4.407260120E-1,-2.995128632E-1,5.434806459E-1
4.521940292E0,-1.135603115E-1,4.983308017E-1,-4.308566749E-1,6.684811191E-1
4.531961292E0,-2.469487190E-1,2.119922638E-1,-5.182512403E-1,6.119711903E-1
4.541981292E0,-1.326326840E-2,7.026556134E-1,-6.194062829E-1,9.367843768E-1
4.552001292E0,-1.480509043E-1,3.629297018E-1,-6.375898123E-1,7.484369095E-1
4.562021292E0,-1.084438805E-2,4.764882028E-1,-5.774815083E-1,7.487613108E-1
4.572041292E0,-8.161253296E-3,2.511293888E-1,-5.685322285E-1,6.215798185E-1
4.582061292E0,-2.036611177E-2,2.654081956E-2,-5.889866948E-1,5.899360307E-1
4.592081292E0,6.406488270E-2,4.887989722E-3,-5.803927183E-1,5.839382751E-1
4.602102292E0,-3.022634238E-2,-3.706244528E-1,-5.683527589E-1,6.791914129E-1
4.612122292E0,3.630554676E-2,-3.464975655E-1,-5.610117316E-1,6.603883847E-1
4.622142292E0,-3.385081887E-2,-5.659550428E-1,-5.478722453E-1,7.884256374E-1
4.632162292E0,-3.421621025E-2,-5.838266611E-1,-5.415225029E-1,7.970388575E-1
4.642182292E0,-4.230318218E-2,-5.462869406E-1,-5.408143401E-1,7.698695546E-1
4.652202292E0,-6.873717904E-2,-4.885181785E-1,-5.362882614E-1,7.286836830E-1
4.662222292E0,-4.504222050E-2,-2.746090591E-1,-5.318623185E-1,6.002636611E-1
4.672243292E0,-3.888286278E-2,-9.550189227E-2,-5.367838740E-1,5.465980387E-1
4.682263292E0,-2.144469135E-2,9.471667558E-2,-5.412431955E-1,5.498866430E-1
4.692283292E0,2.281144261E-3,2.580265105E-1,-5.478256941E-1,6.055541882E-1
4.702303292E0,1.900965907E-2,3.387579024E-1,-5.612725616E-1,6.558545356E-1
4.712323292E0,4.361007735E-2,3.905859590E-1,-5.748120546E-1,6.963247291E-1
4.722343292E0,7.190450281E-2,3.940877020E-1,-5.909286737E-1,7.139132103E-1
4.732363292E0,9.300792217E-2,3.336323500E-1,-6.051052213E-1,6.972182925E-1
4.742384292E0,1.231678277E-1,2.531687319E-1,-6.166917086E-1,6.779184199E-1
4.752404292E0,1.366173178E-1,1.526301503E-1,-6.289044619E-1,6.614235228E-1
4.762424292E0,1.525687128E-1,6.093224138E-2,-6.427771449E-1,6.634398301E-1
4.772444292E0,1.677359492E-1,-7.443355396E-3,-6.524236798E-1,6.736819800E-1
4.782464292E0,1.745840758E-1,-4.855732992E-2,-6.580412984E-1,6.825362732E-1
4.792484292E0,1.816949844E-1,-6.191255152E-2,-6.633990407E-1,6.906116989E-1
4.802504292E0,1.870076507E-1,-5.151280016E-2,-6.746653318E-1,7.019962536E-1
4.812525292E0,1.913738996E-1,-2.808497101E-2,-6.843951941E-1,7.112028661E-1
4.822545583E0,1.900449842E-1,-2.162555465E-3,-6.980976462E-1,7.235068046E-1
4.832565583E0,1.913483441E-1,4.220517725E-2,-7.175354958E-1,7.438095546E-1
4.842585583E0,1.967470348E-1,9.792899340E-2,-7.356833220E-1,7.678082011E-1
4.852605583E0,2.068566680E-1,1.559092104E-1,-7.511906028E-1,7.945971839E-1
4.862625583E0,2.195847034E-1,2.167865336E-1,-7.647263408E-1,8.246333848E-1
4.872645583E0,2.370486557E-1,2.647282183E-1,-7.723139524E-1,8.501423033E-1
4.882666583E0,2.510121465E-1,2.795409858E-1,-7.814407349E-1,8.670639437E-1
4.892686583E0,2.552390993E-1,2.627225816E-1,-7.912848592E-1,8.719529122E-1
4.902706583E0,2.562251985E-1,2.143514454E-1,-7.963840365E-1,8.636118504E-1
4.912726583E0,2.558142841E-1,1.583275944E-1,-8.049290776E-1,8.593133277E-1
4.922746583E0,2.508080006E-1,1.083430722E-1,-8.158283830E-1,8.603597067E-1
4.932766583E0,2.443208098E-1,8.457915485E-2,-8.213413954E-1,8.610737363E-1
4.942787583E0,2.317658067E-1,7.734557986E-2,-8.275597692E-1,8.628747878E-1
4.952807583E0,2.246088237E-1,9.353972971E-2,-8.340741396E-1,8.688374273E-1
4.962827583E0,2.230100632E-1,1.277614534E-1,-8.386353850E-1,8.771349875E-1
4.972847583E0,2.218249589E-1,1.495104283E-1,-8.418697715E-1,8.833483983E-1
4.982867583E0,2.233504802E-1,1.451523304E-1,-8.536435962E-1,8.942382374E-1
4.992887583E0,2.249265313E-1,9.471285343E-2,-8.598834276E-1,8.938467308E-1
5.002907583E0,2.171051651E-1,1.054687239E-2,-8.709742427E-1,8.976870394E-1
5.012928583E0,2.032229006E-1,-9.513907880E-2,-8.816631436E-1,9.097696909E-1
5.022948583E0,1.806528121E-1,-2.266428024E-1,-8.927891850E-1,9.386559153E-1
5.032968583E0,1.379514188E-1,-3.730908036E-1,-9.025941491E-1,9.863587277E-1
5.042988583E0,7.596382499E-2,-4.951927066E-1,-9.118422270E-1,1.040405001E0
5.053008583E0,4.269398749E-3,-5.475680232E-1,-9.253883958E-1,1.075263991E0
5.063028583E0,-6.603325158E-2,-4.718720615E-1,-9.351148009E-1,1.049506228E0
5.073048583E0,-1.191278920E-1,-2.645979822E-1,-9.451738596E-1,9.887149092E-1
5.083069583E0,-1.472824514E-1,2.793036029E-2,-9.605644941E-1,9.721915310E-1
5.093089583E0,-1.600768119E-1,3.079633713E-1,-9.850812554E-1,1.044438176E0
5.103109583E0,-1.764078885E-1,4.663236439E-1,-1.013122082E0,1.129156250E0
5.113129583E0,-1.760411859E-1,5.190475583E-1,-1.058391213E0,1.191886248E0
5.123149583E0,-1.773775667E-1,4.842491150E-1,-1.095831275E0,1.211117744E0
5.133169583E0,-1.732046604E-1,3.974425793E-1,-1.128331661E0,1.208756715E0
5.143189583E0,-1.657826900E-1,3.186680377E-1,-1.154056311E0,1.208668353E0
5.153210583E0,-1.634263247E-1,2.533534765E-1,-1.170616865E0,1.208817601E0
5.163230583E0,-1.686732173E-1,2.092611343E-1,-1.177649498E0,1.207931793E0
5.173250583E0,-1.646646261E-1,1.972635984E-1,-1.185582995E0,1.213109395E0
5.183270583E0,-1.563370675E-1,2.132897526E-1,-1.191729903E0,1.220718624E0
5.193290583E0,-1.413432062E-1,2.458027005E-1,-1.193344474E0,1.226567529E0
5.203310583E0,-1.199183241E-1,3.004981577E-1,-1.189906478E0,1.233108662E0
5.213331583E0,-8.913245052E-2,3.778526187E-1,-1.185810566E0,1.247743521E0
5.223351583E0,-5.386620760E-2,4.542983174E-1,-1.174359798E0,1.260321176E0
5.233371583E0,-1.760194451E-2,5.087804794E-1,-1.163319945E0,1.269834910E0
5.243391583E0,1.080112159E-2,5.314633250E-1,-1.152559876E0,1.269237645E0
5.253411583E0,3.408673406E-2,4.982050359E-1,-1.144846082E0,1.249016699E0
5.263431583E0,5.000513047E-2,4.299866259E-1,-1.133862734E0,1.213686002E0
5.273451583E0,6.167776883E-2,3.544015884E-1,-1.123244643E0,1.179441886E0
5.283472583E0,7.459889352E-2,2.980524302E-1,-1.103914142E0,1.145873762E0
5.293492583E0,9.099677205E-2,2.653019428E-1,-1.087842703E0,1.123417678E0
5.303512583E0,1.042436734E-1,2.611567676E-1,-1.067067027E0,1.103495193E0
5.313532583E0,1.227904633E-1,2.566474974E-1,-1.049875259E0,1.087742385E0
5.323552583E0,1.335358471E-1,2.480987757E-1,-1.027111650E0,1.065055475E0
5.333572583E0,1.418550164E-1,2.188663334E-1,-1.005099297E0,1.038388132E0
5.343592583E0,1.344172657E-1,1.454507858E-1,-9.821817875E-1,1.001950596E0
5.353613583E0,1.228514314E-1,5.205266923E-2,-9.643077254E-1,9.734943985E-1
5.363633583E0,1.184693277E-1,-1.506331936E-2,-9.456719756E-1,9.531827583E-1
5.373653583E0,1.174658462E-1,-4.838532582E-2,-9.339442253E-1,9.425450550E-1
5.383673583E0,1.205009446E-1,-4.652462527E-2,-9.223403931E-1,9.313414084E-1
5.393693583E0,1.239513308E-1,-1.269475557E-2,-9.169858694E-1,9.254124345E-1
5.403713583E0,1.250514090E-1,2.173108235E-2,-9.117842913E-1,9.205762807E-1
5.413733583E0,1.166776270E-1,5.029907823E-2,-9.079930186E-1,9.168396740E-1
5.423754583E0,1.092619151E-1,8.499494195E-2,-9.078976512E-1,9.183901411E-1
5.433774583E0,9.086400270E-2,1.302662790E-1,-8.953230381E-1,9.093013323E-1
5.443794583E0,7.404454052E-2,2.143181860E-1,-8.866021633E-1,9.151383911E-1
5.453814583E0,6.306539476E-2,3.280263841E-1,-8.727926016E-1,9.345295491E-1
5.463834583E0,6.906829774E-2,4.622592032E-1,-8.590409160E-1,9.779597620E-1
5.473854583E0,8.213056624E-2,5.760568976E-1,-8.456614614E-1,1.026513656E0
5.483875583E0,1.017717943E-1,6.350272298E-1,-8.363543153E-1,1.055038208E0
5.493895583E0,1.195787489E-1,6.177963018E-1,-8.291102648E-1,1.040862709E0
5.503915583E0,1.315025836E-1,5.359510779E-1,-8.251949549E-1,9.927150654E-1
5.513935583E0,1.378576756E-1,3.917603791E-1,-8.209828734E-1,9.200509833E-1
5.523955583E0,1.231567636E-1,1.962080449E-1,-8.211739659E-1,8.532243946E-1
5.533975583E0,9.342602640E-2,-1.402002387E-2,-8.142830133E-1,8.197449660E-1
5.543995583E0,4.413659126E-2,-2.342556864E-1,-8.050991297E-1,8.396477678E-1
5.554016583E0,-1.431127079E-2,-4.094882011E-1,-7.903681397E-1,8.902624308E-1
5.564036583E0,-7.649095356E-2,-5.129960775E-1,-7.809323668E-1,9.374813082E-1
5.574056583E0,-1.317390352E-1,-5.170869827E-1,-7.658172846E-1,9.333864336E-1
5.584076583E0,-1.730495244E-1,-4.236956239E-1,-7.546761632E-1,8.826098973E-1
5.594096583E0,-2.047778815E-1,-2.948473692E-1,-7.443399429E-1,8.263842342E-1
5.604116583E0,-2.199764103E-1,-1.422978491E-1,-7.375336289E-1,7.826839418E-1
5.614136583E0,-2.216866910E-1,1.733175293E-2,-7.298948765E-1,7.630150125E-1
5.624157583E0,-2.138268501E-1,1.599484533E-1,-7.174936533E-1,7.655733616E-1
5.634177583E0,-1.906256527E-1,2.795557976E-1,-7.063747048E-1,7.832335584E-1
5.644197583E0,-1.639873832E-1,3.620433807E-1,-6.905394793E-1,7.967509296E-1
5.654217583E0,-1.447591037E-1,3.732816577E-1,-6.732869744E-1,7.833324607E-1
5.664237583E0,-1.376688778E-1,3.145561814E-1,-6.490911841E-1,7.343144262E-1
5.674257583E0,-1.441824436E-1,1.787397563E-1,-6.224049926E-1,6.634187609E-1
5.684278583E0,-1.600903124E-1,9.145660326E-3,-5.938902497E-1,6.151570368E-1
5.694298583E0,-1.842734069E-1,-1.588856876E-1,-5.576861501E-1,6.084531142E-1
5.704318583E0,-2.085407972E-1,-2.730445564E-1,-5.270546079E-1,6.291495478E-1
5.714338583E0,-2.200696319E-1,-3.385167718E-1,-5.020184517E-1,6.442412386E-1
5.724358583E0,-2.370667160E-1,-3.736464083E-1,-4.865777194E-1,6.577006487E-1
5.734378583E0,-2.403999269E-1,-3.854441941E-1,-4.749466479E-1,6.572166081E-1
5.744398583E0,-2.407274395E-1,-3.703327179E-1,-4.780437946E-1,6.508624215E-1
5.754419583E0,-2.272268087E-1,-3.270846009E-1,-4.800083935E-1,6.237182189E-1
5.764439583E0,-2.033651471E-1,-2.540766895E-1,-4.886483848E-1,5.871027092E-1
5.774459583E0,-1.680803895E-1,-1.702776551E-1,-5.008123517E-1,5.550301873E-1
5.784479583E0,-1.376115829E-1,-9.096786380E-2,-5.125172734E-1,5.384106755E-1
5.794499583E0,-1.176130995E-1,-6.261851639E-2,-5.223118067E-1,5.390394635E-1
5.804519583E0,-1.014273316E-1,-7.410226017E-2,-5.312221050E-1,5.458713891E-1
5.814540583E0,-8.882605284E-2,-1.026880965E-1,-5.313494205E-1,5.484223915E-1
5.824560333E0,-8.366411179E-2,-1.281591356E-1,-5.240464807E-1,5.459387892E-1
5.834580333E0,-7.971730828E-2,-1.508018672E-1,-5.142984986E-1,5.418477628E-1
5.844600333E0,-8.052457869E-2,-1.809614003E-1,-4.978934526E-1,5.358443117E-1
5.854620333E0,-8.324979246E-2,-2.260982394E-1,-4.823624194E-1,5.391886919E-1
5.864640333E0,-9.220054746E-2,-2.866759002E-1,-4.672243595E-1,5.558620466E-1
5.874660333E0,-1.036066040E-1,-3.678410649E-1,-4.550987184E-1,5.942694851E-1
5.884681333E0,-1.184766218E-1,-4.405478835E-1,-4.391607642E-1,6.332308619E-1
5.894701333E0,-1.358633339E-1,-4.950987399E-1,-4.311385453E-1,6.704193113E-1
5.904721333E0,-1.500501484E-1,-5.361900926E-1,-4.178114533E-1,6.961187204E-1
5.914741333E0,-1.636708826E-1,-5.565102696E-1,-4.106251895E-1,7.107073127E-1
5.924761333E0,-1.734390110E-1,-5.481365919E-1,-4.092063904E-1,7.056802986E-1
5.934781333E0,-1.780779660E-1,-5.137019157E-1,-4.110208154E-1,6.815713689E-1
5.944802333E0,-1.843929738E-1,-4.454488754E-1,-4.159517288E-1,6.367427346E-1
5.954822333E0,-1.842643470E-1,-3.421840072E-1,-4.230029881E-1,5.744343063E-1
5.964842333E0,-1.780940741E-1,-2.127614468E-1,-4.338290095E-1,5.149684864E-1
5.974862333E0,-1.638850570E-1,-9.001794457E-2,-4.433772266E-1,4.811911339E-1
5.984882333E0,-1.508507431E-1,1.202266570E-2,-4.545226693E-1,4.790525525E-1
5.994902333E0,-1.415499151E-1,7.826054096E-2,-4.724686444E-1,4.993873353E-1
6.004922333E0,-1.395926178E-1,1.086403579E-1,-4.848456979E-1,5.161048121E-1
6.014943333E0,-1.514687240E-1,1.085239798E-1,-5.056412816E-1,5.388815586E-1
6.024963333E0,-1.723172069E-1,8.288576454E-2,-5.274637938E-1,5.610537617E-1
6.034983333E0,-1.965849996E-1,6.728656590E-2,-5.555329323E-1,5.931188606E-1
6.045003333E0,-2.191652060E-1,6.359165907E-2,-5.843198299E-1,6.273013233E-1
6.055023333E0,-2.386739403E-1,7.051667571E-2,-6.176878810E-1,6.659400646E-1
6.065043333E0,-2.675116360E-1,9.187685698E-2,-6.471392512E-1,7.062528179E-1
6.075063333E0,-2.966647148E-1,1.121826619E-1,-6.761493683E-1,7.468419317E-1
6.085084333E0,-3.327853680E-1,1.365190595E-1,-6.995158792E-1,7.865786801E-1
6.095104333E0,-3.623483479E-1,1.670897454E-1,-7.259197831E-1,8.283567105E-1
6.105124333E0,-3.990660906E-1,1.751254797E-1,-7.534057498E-1,8.703694056E-1
6.115144333E0,-4.323457479E-1,1.763689071E-1,-7.769664526E-1,9.064798429E-1
6.125164333E0,-4.633958042E-1,1.918923408E-1,-8.059414029E-1,9.492628122E-1
6.135184333E0,-4.972488582E-1,2.214707434E-1,-8.241800070E-1,9.877137243E-1
6.145205333E0,-5.243626237E-1,2.747177780E-1,-8.419671059E-1,1.029239829E0
6.155225333E0,-5.299714804E-1,3.784875870E-1,-8.541800976E-1,1.074125813E0
6.165245333E0,-5.177330375E-1,5.219601393E-1,-8.572301269E-1,1.129306591E0
6.175265333E0,-4.889492989E-1,6.667593718E-1,-8.582285643E-1,1.191719659E0
6.185285333E0,-4.439781606E-1,7.748813629E-1,-8.531552553E-1,1.235083650E0
6.195305333E0,-3.862176538E-1,8.359095454E-1,-8.577244282E-1,1.258411713E0
6.205325333E0,-3.310285509E-1,8.508275747E-1,-8.539531231E-1,1.250089357E0
6.215346333E0,-2.830772698E-1,8.200771213E-1,-8.572652936E-1,1.219656923E0
6.225366333E0,-2.365014553E-1,7.095236182E-1,-8.529966474E-1,1.134442587E0
6.235386333E0,-2.177890241E-1,5.201677680E-1,-8.504330516E-1,1.020413123E0
6.245406333E0,-2.019235790E-1,3.228043318E-1,-8.425567150E-1,9.245959044E-1
6.255426333E0,-1.959761977E-1,1.467108130E-1,-8.299304247E-1,8.652833308E-1
6.265446333E0,-1.921445280E-1,6.466048304E-3,-8.167940378E-1,8.391149085E-1
6.275467333E0,-1.919514388E-1,-9.930831194E-2,-8.042185903E-1,8.327514855E-1
6.285487333E0,-1.932085752E-1,-1.518039554E-1,-7.931904793E-1,8.303764995E-1
6.295507333E0,-1.959766746E-1,-1.438131332E-1,-7.834324241E-1,8.202776587E-1
6.305527333E0,-1.946486235E-1,-7.390678674E-2,-7.760032415E-1,8.034496441E-1
6.315547333E0,-1.911577582E-1,2.098377794E-2,-7.596439719E-1,7.836074091E-1
6.325567333E0,-1.792088747E-1,1.399936825E-1,-7.454152703E-1,7.793317504E-1
6.335588333E0,-1.672156006E-1,2.628253400E-1,-7.288597822E-1,7.926378736E-1
6.345608333E0,-1.474655867E-1,3.857948184E-1,-7.143429518E-1,8.251482254E-1
6.355628333E0,-1.219977736E-1,4.984593093E-1,-7.046666145E-1,8.717225347E-1
6.365648333E0,-9.445177019E-2,5.968567729E-1,-6.898226142E-1,9.170683635E-1
6.375668333E0,-6.720045209E-2,6.501035094E-1,-6.791995764E-1,9.425829079E-1
6.385688333E0,-3.562860563E-2,6.484658122E-1,-6.680127382E-1,9.316750107E-1
6.395708333E0,-4.935408942E-3,5.838889480E-1,-6.570621133E-1,8.790229135E-1
6.405729333E0,1.078069955E-2,4.387816787E-1,-6.495287418E-1,7.839216616E-1
6.415749333E0,2.233109623E-2,2.454154193E-1,-6.435027719E-1,6.890741784E-1
6.425769333E0,2.161156386E-2,3.460000828E-2,-6.350623965E-1,6.363713285E-1
6.435789333E0,4.897565581E-3,-1.950089484E-1,-6.242824793E-1,6.540497612E-1
6.445809333E0,-3.442366421E-2,-4.164832234E-1,-6.120007634E-1,7.410723301E-1
6.455829333E0,-8.225084096E-2,-6.028848290E-1,-5.950233936E-1,8.510512070E-1
6.465850333E0,-1.386790276E-1,-7.295187712E-1,-5.716679096E-1,9.371412429E-1
6.475870333E0,-1.938522607E-1,-7.920373082E-1,-5.397672057E-1,9.778805822E-1
6.485890333E0,-2.375202030E-1,-7.560467720E-1,-5.049622655E-1,9.396858293E-1
6.495910333E0,-2.614582777E-1,-6.252480149E-1,-4.667344391E-1,8.228830706E-1
6.505930333E0,-2.630043328E-1,-4.352779388E-1,-4.340325296E-1,6.685973376E-1
6.515950333E0,-2.498943657E-1,-2.266626656E-1,-4.066184759E-1,5.283575900E-1
6.525971333E0,-2.251040637E-1,-2.990566753E-2,-3.818468153E-1,4.442670130E-1
6.535991333E0,-1.949019432E-1,1.338308007E-1,-3.589524329E-1,4.298189150E-1
6.546011333E0,-1.672167927E-1,2.486187667E-1,-3.413262665E-1,4.541765814E-1
6.556031333E0,-1.344982535E-1,3.081846237E-1,-3.322174549E-1,4.726901520E-1
6.566051333E0,-1.091900393E-1,3.114383221E-1,-3.141810000E-1,4.556599542E-1
6.576071333E0,-7.730774581E-2,2.692908645E-1,-3.033203483E-1,4.129131760E-1
6.586091333E0,-4.365224764E-2,1.954828501E-1,-2.915090024E-1,3.536899234E-1
6.596112333E0,-1.664273441E-2,9.555119276E-2,-2.853783965E-1,3.014097547E-1
6.606132333E0,1.022776589E-2,-1.619035611E-3,-2.809425592E-1,2.811333315E-1
6.616152333E0,3.769268095E-2,-9.057313949E-2,-2.750543058E-1,2.920258600E-1
6.626172333E0,6.131271645E-2,-1.598048359E-1,-2.702871263E-1,3.199249372E-1
6.636192333E0,8.030771464E-2,-2.225331962E-1,-2.652582824E-1,3.554325658E-1
6.646212333E0,1.004179120E-1,-2.581262887E-1,-2.640230358E-1,3.826501030E-1
6.656233333E0,1.134570166E-1,-2.754003406E-1,-2.641306221E-1,3.980990175E-1
6.666253333E0,1.170440242E-1,-2.832801044E-1,-2.676292360E-1,4.069057988E-1
6.676273333E0,1.209924296E-1,-2.790528834E-1,-2.749941945E-1,4.100383967E-1
6.686293333E0,1.189322099E-1,-2.711439431E-1,-2.844500244E-1,4.105797423E-1
6.696313333E0,1.092913002E-1,-2.627241015E-1,-2.854692042E-1,4.030647694E-1
6.706333333E0,9.704647958E-2,-2.504042387E-1,-2.900327742E-1,3.952711880E-1
6.716353333E0,8.191919327E-2,-2.053286433E-1,-2.859629393E-1,3.614490402E-1
6.726374333E0,6.687472761E-2,-1.318791956E-1,-2.781574726E-1,3.150173503E-1
6.736394333E0,4.969254881E-2,-2.677568793E-2,-2.671519518E-1,2.730502742E-1
6.746414333E0,3.585636243E-2,1.042455807E-1,-2.517281175E-1,2.748087789E-1
6.756434333E0,2.740508690E-2,2.330261916E-1,-2.313660979E-1,3.295186126E-1
6.766454333E0,1.563711092E-2,3.377482295E-1,-2.157583237E-1,4.010860756E-1
6.776474333E0,6.140545476E-3,3.917075992E-1,-1.977428347E-1,4.388334288E-1
6.786495333E0,3.294576891E-4,4.053667486E-1,-1.785007119E-1,4.429275489E-1
6.796515333E0,-3.680463880E-3,3.709997237E-1,-1.553999186E-1,4.022480273E-1
6.806535333E0,-7.168268785E-3,3.165077865E-1,-1.402878463E-1,3.462791400E-1
6.816555333E0,-8.459901437E-3,2.419688553E-1,-1.253935844E-1,2.726610494E-1
6.826575542E0,-5.909194238E-3,1.713059694E-1,-1.126558557E-1,2.051145912E-1
6.836595542E0,-8.068438619E-4,1.030749828E-1,-1.059191227E-1,1.477970352E-1
6.846616542E0,5.675356835E-3,3.988939524E-2,-1.040386558E-1,1.115679856E-1
6.856636542E0,1.308160834E-2,-2.050897107E-2,-1.024471521E-1,1.052956094E-1
6.866656542E0,2.086935192E-2,-5.080222711E-2,-9.474249184E-2,1.095104374E-1
6.876676542E0,3.398621827E-2,-4.757447541E-2,-8.885690570E-2,1.063670223E-1
6.886696542E0,5.148765445E-2,-6.985007785E-3,-8.570741117E-2,1.002273876E-1
6.896716542E0,6.570893526E-2,5.643311143E-2,-7.684174925E-2,1.157886638E-1
6.906736542E0,7.354934514E-2,1.417052895E-1,-6.494566053E-2,1.723596068E-1
6.916757542E0,7.907327265E-2,2.172051072E-1,-5.666003749E-2,2.379936993E-1
6.926777542E0,8.928656578E-2,2.573056817E-1,-4.555644840E-2,2.761407153E-1
6.936797542E0,8.920720220E-2,2.331790477E-1,-3.952252492E-2,2.527695060E-1
6.946817542E0,9.934818745E-2,1.819266230E-1,-3.181774914E-2,2.097134418E-1
6.956837542E0,1.047866270E-1,9.043532610E-2,-2.056669258E-2,1.399348929E-1
6.966857542E0,1.168150604E-1,-3.220329527E-3,-6.608903874E-3,1.170461724E-1
6.976878542E0,1.253995001E-1,-8.777569234E-2,1.137941703E-2,1.534897323E-1
6.986898542E0,1.281689852E-1,-1.661775112E-1,2.824054100E-2,2.117540606E-1
6.996918542E0,1.271026433E-1,-2.355808318E-1,4.218378663E-2,2.709850219E-1
7.006938542E0,1.169673279E-1,-2.939612567E-1,6.480092555E-2,3.229454075E-1
7.016958542E0,1.068664938E-1,-3.318087757E-1,8.260522038E-2,3.582473078E-1
7.026978542E0,9.156796336E-2,-3.607583940E-1,1.011557877E-1,3.856991109E-1
7.036999542E0,8.309564739E-2,-3.638426065E-1,1.220770478E-1,3.926692432E-1
7.047019542E0,8.000671118E-2,-3.297218978E-1,1.355805099E-1,3.653760781E-1
7.057039542E0,8.257586509E-2,-2.736743391E-1,1.507594734E-1,3.231792632E-1
7.067059542E0,8.090579510E-2,-2.043016404E-1,1.584778875E-1,2.709246183E-1
7.077079542E0,8.401024342E-2,-1.286444366E-1,1.631735712E-1,2.241265857E-1
7.087099542E0,8.364399523E-2,-5.000397563E-2,1.680863500E-1,1.942929143E-1
7.097120542E0,8.723739535E-2,3.072069399E-2,1.689377576E-1,1.925982610E-1
7.107140542E0,8.607605845E-2,1.048241183E-1,1.707876623E-1,2.180954131E-1
7.117160542E0,8.811125159E-2,1.684893817E-1,1.757976115E-1,2.589537885E-1
7.127180542E0,9.074278176E-2,2.106336802E-1,1.763201207E-1,2.892915219E-1
7.137200542E0,9.755887091E-2,2.298862040E-1,1.744673550E-1,3.046379130E-1
7.147220542E0,1.049354374E-1,2.492732704E-1,1.733469963E-1,3.212441291E-1
7.157241542E0,1.148490459E-1,2.645297348E-1,1.675330549E-1,3.335170287E-1
7.167261542E0,1.213547513E-1,2.606894970E-1,1.628453881E-1,3.304612079E-1
7.177281542E0,1.319741160E-1,2.448647320E-1,1.596365422E-1,3.207175235E-1
7.187301542E0,1.397997439E-1,2.195159346E-1,1.561492831E-1,3.035025742E-1
7.197321542E0,1.467591077E-1,1.976298094E-1,1.553061157E-1,2.910597307E-1
7.207341542E0,1.444323063E-1,1.644414961E-1,1.610308588E-1,2.717216116E-1
7.217361542E0,1.375957131E-1,1.323131323E-1,1.676831692E-1,2.540806771E-1
7.227382542E0,1.330325156E-1,1.028442606E-1,1.796445101E-1,2.460624762E-1
7.237402542E0,1.243948191E-1,7.145331055E-2,1.862289160E-1,2.350762765E-1
7.247422542E0,1.115050465E-1,4.629399627E-2,2.001748532E-1,2.337658686E-1
7.257442542E0,9.744729102E-2,2.345286123E-2,2.111209780E-1,2.337051103E-1
7.267462542E0,8.425912261E-2,1.274512336E-2,2.264320403E-1,2.419369893E-1
7.277482542E0,7.044902444E-2,8.720819838E-3,2.396210730E-1,2.499147382E-1
7.287503542E0,6.018720195E-2,1.945408992E-2,2.531428337E-1,2.609257656E-1
7.297523542E0,5.631123856E-2,3.915029764E-2,2.607727945E-1,2.696407828E-1
7.307543542E0,4.714597017E-2,5.051227659E-2,2.709384263E-1,2.796101990E-1
7.317563542E0,3.984384984E-2,5.025660992E-2,2.768466473E-1,2.841783336E-1
7.327583542E0,2.930198982E-2,2.981005982E-2,2.819549143E-1,2.850365240E-1
7.337603542E0,2.375915274E-2,-7.718939334E-3,2.855446041E-1,2.866353088E-1
7.347624542E0,1.497192122E-2,-5.154704675E-2,2.912014425E-1,2.961073058E-1
7.357644542E0,4.987996072E-3,-9.354616702E-2,2.935402393E-1,3.081260093E-1
7.367664542E0,1.090526115E-3,-1.114424393E-1,2.946531475E-1,3.150255288E-1
7.377684542E0,4.052493721E-3,-9.211161733E-2,2.930967808E-1,3.072567260E-1
7.387704542E0,1.027137414E-2,-6.121316552E-2,2.895477712E-1,2.961257580E-1
7.397724542E0,2.204973623E-2,-3.022728115E-2,2.864321470E-1,2.888654605E-1
7.407745542E0,3.641609102E-2,-7.054220419E-3,2.873807847E-1,2.897647480E-1
7.417765542E0,5.290984735E-2,4.843718372E-3,2.866646647E-1,2.915468120E-1
7.427785542E0,7.140789926E-2,2.005396038E-2,2.885454595E-1,2.979257149E-1
7.437805542E0,8.668006212E-2,1.526426524E-2,2.845075727E-1,2.978103253E-1
7.447825542E0,9.988341480E-2,-1.851782575E-2,2.815800309E-1,2.993441502E-1
7.457845542E0,1.075176299E-1,-5.472456664E-2,2.749879062E-1,3.002884738E-1
7.467866542E0,1.108112335E-1,-6.680143625E-2,2.746515870E-1,3.036034512E-1
7.477886542E0,1.056423038E-1,-6.803607941E-2,2.732672691E-1,3.007726797E-1
7.487906542E0,8.594383299E-2,-7.399722934E-2,2.686097026E-1,2.915700683E-1
7.497926542E0,6.629982591E-2,-8.484082669E-2,2.650863528E-1,2.861195681E-1
7.507946542E0,3.767962754E-2,-9.138221294E-2,2.643600404E-1,2.822351752E-1
7.517966542E0,1.576660760E-2,-9.023012966E-2,2.641163468E-1,2.795487558E-1
7.527987542E0,-1.109663583E-2,-6.027766690E-2,2.648247480E-1,2.718247223E-1
7.538007542E0,-2.878348716E-2,-5.159023218E-3,2.626332343E-1,2.642561643E-1
7.548027542E0,-3.847346082E-2,6.739851832E-2,2.593406439E-1,2.707034116E-1
7.558047542E0,-5.400528386E-2,1.404466331E-1,2.553610802E-1,2.963968770E-1
7.568067542E0,-6.829354167E-2,1.970838755E-1,2.439893335E-1,3.209935462E-1
7.578087542E0,-8.607786149E-2,2.397024333E-1,2.400020361E-1,3.499537571E-1
7.588108542E0,-1.058482379E-1,2.627041042E-1,2.326905727E-1,3.665544959E-1
7.598128542E0,-1.222610399E-1,2.832669020E-1,2.287719995E-1,3.840892180E-1
7.608148542E0,-1.358427554E-1,2.907540500E-1,2.285846621E-1,3.940077658E-1
7.618168542E0,-1.402641386E-1,2.819522917E-1,2.287545651E-1,3.892297194E-1
7.628188542E0,-1.431436688E-1,2.635183334E-1,2.305592000E-1,3.782718159E-1
7.638208542E0,-1.466513276E-1,2.447760999E-1,2.332646996E-1,3.685571476E-1
7.648229542E0,-1.513864249E-1,2.133089900E-1,2.370689213E-1,3.530159321E-1
7.658249542E0,-1.543004662E-1,1.683391184E-1,2.393456548E-1,3.308066431E-1
7.668269542E0,-1.570572257E-1,1.033420637E-1,2.434175014E-1,3.075689098E-1
7.678289542E0,-1.749060005E-1,7.901296951E-3,2.436904758E-1,3.000659719E-1
7.688309542E0,-1.756974906E-1,-5.124364793E-2,2.541834116E-1,3.132167403E-1
7.698329542E0,-1.714769155E-1,-1.155336872E-1,2.658267617E-1,3.367732660E-1
7.708349542E0,-1.688510478E-1,-1.662228405E-1,2.788631618E-1,3.659308296E-1
7.718370542E0,-1.572535038E-1,-1.949498206E-1,2.839538157E-1,3.786342120E-1
7.728390542E0,-1.539321542E-1,-2.527637780E-1,2.926785648E-1,4.162275553E-1
7.738410542E0,-1.473288238E-1,-3.537156880E-1,2.929403484E-1,4.823221102E-1
7.748430542E0,-1.422963291E-1,-4.622845352E-1,2.988660336E-1,5.685737795E-1
7.758450542E0,-1.476109326E-1,-6.125627756E-1,2.972375154E-1,6.966866455E-1
7.768470542E0,-1.518233865E-1,-7.374634743E-1,3.015091717E-1,8.110551752E-1
7.778491542E0,-1.374907941E-1,-7.699188590E-1,2.940768301E-1,8.355596627E-1
7.788511542E0,-1.105188280E-1,-7.042272091E-1,2.973580062E-1,7.723808369E-1
7.798531542E0,-1.106911302E-1,-6.246929765E-1,3.031405210E-1,7.031273118E-1
7.808551542E0,-9.519539773E-2,-5.496563315E-1,3.192726970E-1,6.427435737E-1
7.818571542E0,-7.097101212E-2,-4.619014561E-1,3.347661793E-1,5.748549683E-1
7.828591958E0,-7.058871537E-2,-4.113084972E-1,3.360711634E-1,5.358183213E-1
7.838612958E0,-5.907427892E-2,-3.432777822E-1,3.433823287E-1,4.891225101E-1
7.848632958E0,-4.731948301E-2,-2.780585289E-1,3.390642405E-1,4.410444854E-1
7.858652958E0,-4.730270430E-2,-2.249191403E-1,3.289703429E-1,4.013074283E-1
7.868672958E0,-4.072503000E-2,-1.566707343E-1,3.137953281E-1,3.530888769E-1
7.878692958E0,-3.539284691E-2,-1.142966524E-1,2.964187264E-1,3.196567530E-1
7.888712958E0,-3.630897775E-2,-1.217046380E-1,2.809031904E-1,3.082806564E-1
7.898733958E0,-2.674103901E-2,-1.553328931E-1,2.665191889E-1,3.096382872E-1
7.908753958E0,-2.352320962E-2,-2.066393942E-1,2.530851364E-1,3.275748264E-1
7.918773958E0,-2.382973768E-2,-2.788741887E-1,2.358238548E-1,3.659939344E-1
7.928793958E0,-2.664077282E-2,-3.187458515E-1,2.174193710E-1,3.867555191E-1
7.938813958E0,-2.155786380E-2,-2.602290213E-1,1.967724115E-1,3.269606504E-1
7.948833958E0,-1.660464704E-2,-1.394354850E-1,1.724513173E-1,2.223902552E-1
7.958854958E0,1.092324033E-3,-3.735449864E-3,1.464348882E-1,1.464865975E-1
7.968874958E0,1.837017760E-2,1.383005381E-1,1.177737489E-1,1.825791833E-1
7.978894958E0,4.517356306E-2,3.155187368E-1,9.092802554E-2,3.314523041E-1
7.988914958E0,8.835498989E-2,4.362452328E-1,6.492249668E-2,4.498126699E-1
7.998934958E0,1.130712628E-1,5.063278675E-1,3.934070468E-2,5.202890648E-1
8.008954958E0,1.326279789E-1,5.780613422E-1,2.341533266E-2,5.935430684E-1
8.018975958E0,1.220608205E-1,5.734050870E-1,2.183288150E-2,5.866591109E-1
8.028995958E0,1.170149967E-1,5.530563593E-1,2.745701186E-2,5.659661947E-1
8.039015958E0,9.206810594E-2,5.133150220E-1,3.095534071E-2,5.224242347E-1
8.049035958E0,7.465076447E-2,4.633539915E-1,3.492872417E-2,4.706268945E-1
8.059055958E0,1.927166060E-2,3.397950232E-1,3.813064098E-2,3.424704374E-1
8.069075958E0,-2.845817804E-2,2.189950645E-1,5.762730166E-2,2.282314879E-1
8.079096958E0,-1.008434296E-1,7.403120399E-2,7.159078866E-2,1.441362462E-1
8.089116958E0,-1.596876383E-1,-5.177268758E-2,7.482113689E-2,1.837899767E-1
8.099136958E0,-2.608611286E-1,-1.914400309E-1,8.883761615E-2,3.355442383E-1
8.109156958E0,-3.328990936E-1,-3.587860167E-1,1.072269604E-1,5.010457398E-1
8.119176958E0,-4.196563661E-1,-5.690873861E-1,1.203121319E-1,7.172495575E-1
8.129196958E0,-4.953674972E-1,-7.326163054E-1,1.289103329E-1,8.937189055E-1
8.139217958E0,-5.547860861E-1,-8.066534996E-1,1.394716352E-1,9.889033354E-1
8.149237958E0,-5.845040679E-1,-7.439870238E-1,1.492072940E-1,9.578227986E-1
8.159257958E0,-6.057198644E-1,-6.061580777E-1,1.625899374E-1,8.722153731E-1
8.169277958E0,-6.147999167E-1,-4.391119480E-1,1.664177030E-1,7.736233531E-1
8.179297958E0,-6.167826653E-1,-2.416974157E-1,1.716018170E-1,6.843140219E-1
8.189317958E0,-6.106982827E-1,-5.223771557E-2,1.737238318E-1,6.370723202E-1
8.199338958E0,-6.032701731E-1,7.751681656E-2,1.684228182E-1,6.311180589E-1
8.209358958E0,-5.967704654E-1,1.469512880E-1,1.619521379E-1,6.355770326E-1
8.219378958E0,-5.925506949E-1,1.924143732E-1,1.479058266E-1,6.403247228E-1
8.229398958E0,-5.888154507E-1,2.248802930E-1,1.377154887E-1,6.451669063E-1
8.239418958E0,-5.901616812E-1,1.931385994E-1,1.144322753E-1,6.314175117E-1
8.249438958E0,-6.065903902E-1,1.228463575E-1,8.367661387E-2,6.245357514E-1
8.259459958E0,-6.122075319E-1,5.061983317E-2,5.035061017E-2,6.163567259E-1
8.269479958E0,-6.342360973E-1,-6.803331524E-2,2.523859963E-2,6.383736727E-1
8.279499958E0,-6.449939609E-1,-1.512291282E-1,-7.296440192E-3,6.625259971E-1
8.289519958E0,-6.443448663E-1,-1.985104680E-1,-3.322698921E-2,6.750486986E-1
8.299539958E0,-6.411887407E-1,-2.009286135E-1,-5.196632072E-2,6.739405074E-1
8.309559958E0,-6.325942278E-1,-1.681019813E-1,-6.761468947E-2,6.580315185E-1
8.319580958E0,-6.156320572E-1,-8.046747744E-2,-7.458684593E-2,6.253327453E-1
8.329600958E0,-5.745701790E-1,1.185071021E-1,-8.226171881E-2,5.924034218E-1
8.339620958E0,-5.306400061E-1,3.664215505E-1,-8.265720308E-2,6.501352028E-1
8.349640958E0,-4.814364612E-1,5.758849382E-1,-8.830543607E-2,7.557925498E-1
8.359660958E0,-4.418807924E-1,7.178524733E-1,-1.034779921E-1,8.492811683E-1
8.369681958E0,-4.074968398E-1,7.863524556E-1,-1.067661718E-1,8.920778409E-1
8.379701958E0,-3.807137012E-1,7.670959234E-1,-1.128030196E-1,8.637728864E-1
8.389721958E0,-3.616625071E-1,6.788172722E-1,-1.188568696E-1,7.782799069E-1
8.399741958E0,-3.509851098E-1,5.466699004E-1,-1.160464361E-1,6.599282557E-1
8.409761958E0,-3.568305969E-1,3.820314407E-1,-1.101410091E-1,5.342350967E-1
8.419781958E0,-3.587571383E-1,2.336030900E-1,-1.047715470E-1,4.407427424E-1
8.429802958E0,-3.555120826E-1,1.024330929E-1,-9.668458998E-2,3.823993846E-1
8.439822958E0,-3.516771197E-1,-3.019552305E-2,-9.007968009E-2,3.642841129E-1
8.449842958E0,-3.494040370E-1,-1.430412084E-1,-8.971630782E-2,3.880631189E-1
8.459862958E0,-3.451909125E-1,-2.247837484E-1,-8.015662432E-2,4.196541243E-1
8.469882958E0,-3.493583202E-1,-3.157599270E-1,-7.020221651E-2,4.761133464E-1
8.479902958E0,-3.555275500E-1,-3.869557977E-1,-6.348652393E-2,5.293063072E-1
8.489923958E0,-3.628776371E-1,-4.291373491E-1,-5.160639063E-2,5.643600478E-1
8.499943958E0,-3.716503680E-1,-4.593162835E-1,-3.414111584E-2,5.918285732E-1
8.509963958E0,-3.719483614E-1,-4.790138304E-1,-1.860556379E-2,6.067503608E-1
8.519983958E0,-3.622549772E-1,-4.840397537E-1,-8.547868580E-3,6.046455306E-1
8.530003958E0,-3.596272469E-1,-4.628852010E-1,5.878365599E-3,5.861987898E-1
8.540023958E0,-3.608264625E-1,-4.212810397E-1,1.608999074E-2,5.549165147E-1
8.550044958E0,-3.607315421E-1,-3.670921624E-1,2.334601246E-2,5.151979595E-1
8.560064958E0,-3.586854339E-1,-3.056146801E-1,2.500809170E-2,4.718908537E-1
8.570084958E0,-3.554687798E-1,-2.475442886E-1,2.972674742E-2,4.341887928E-1
8.580104958E0,-3.543438613E-1,-2.241977006E-1,3.299045190E-2,4.206097371E-1
8.590124958E0,-3.451453149E-1,-2.184704244E-1,3.753454983E-2,4.101992896E-1
8.600144958E0,-3.373433053E-1,-2.237551957E-1,4.681007564E-2,4.075022411E-1
8.610165958E0,-3.348617256E-1,-2.208957523E-1,6.543740630E-2,4.064595463E-1
8.620185958E0,-3.371594846E-1,-2.062542140E-1,7.720698416E-2,4.027135921E-1
8.630205958E0,-3.365630805E-1,-1.622350216E-1,8.883825690E-2,3.840405516E-1
8.640225958E0,-3.409394622E-1,-1.165359840E-1,9.043375403E-2,3.714816500E-1
8.650245958E0,-3.393655121E-1,-7.104519010E-2,8.760697395E-2,3.576190036E-1
8.660265958E0,-3.265519738E-1,8.752439171E-3,7.686697692E-2,3.355910144E-1
8.670286958E0,-3.090769351E-1,1.137191728E-1,6.582384557E-2,3.358472580E-1
8.680306958E0,-2.923027575E-1,2.268555909E-1,6.039019302E-2,3.749017693E-1
8.690326958E0,-2.691276670E-1,3.308654726E-1,5.232566595E-2,4.296971461E-1
8.700346958E0,-2.457245737E-1,4.153175056E-1,4.683475941E-2,4.848326425E-1
8.710366958E0,-2.229918391E-1,4.818559289E-1,4.683241621E-2,5.330138570E-1
8.720387958E0,-2.037944347E-1,5.213396549E-1,4.527766258E-2,5.615846099E-1
8.730407958E0,-1.824378967E-1,5.237120986E-1,4.768157005E-2,5.566250807E-1
8.740427958E0,-1.697471291E-1,4.782407284E-1,4.542667046E-2,5.095015844E-1
8.750447958E0,-1.537394822E-1,4.043890834E-1,4.388095438E-2,4.348469815E-1
8.760467958E0,-1.436303854E-1,3.073538840E-1,4.178904369E-2,3.418222079E-1
8.770487958E0,-1.393149942E-1,1.990544647E-1,3.729703277E-2,2.458097154E-1
8.780508958E0,-1.391032636E-1,7.648886740E-2,3.069852106E-2,1.616869320E-1
8.790528958E0,-1.416517943E-1,-3.457513824E-2,3.147677705E-2,1.491692278E-1
8.800548958E0,-1.442313343E-1,-1.392983645E-1,2.643381618E-2,2.022509797E-1
8.810568958E0,-1.479074955E-1,-2.190342993E-1,2.704215050E-2,2.656763621E-1
8.820588958E0,-1.480270624E-1,-2.545065284E-1,3.025445528E-2,2.959745196E-1
8.830608167E0,-1.508079320E-1,-2.534464598E-1,3.069968149E-2,2.965140988E-1
8.840629167E0,-1.548127979E-1,-2.251096368E-1,3.723108396E-2,2.757308553E-1
8.850649167E0,-1.588577330E-1,-1.841880977E-1,3.850351647E-2,2.462591226E-1
8.860669167E0,-1.641033590E-1,-1.313792169E-1,4.756226018E-2,2.155286052E-1
8.870689167E0,-1.769351959E-1,-9.117342532E-2,5.623314902E-2,2.068352583E-1
8.880709167E0,-1.906528771E-1,-6.255589426E-2,6.195441633E-2,2.100002599E-1
8.890729167E0,-2.134547830E-1,-6.274189055E-2,6.827086210E-2,2.327238703E-1
8.900750167E0,-2.349254638E-1,-7.863243669E-2,6.811586767E-2,2.569295722E-1
8.910770167E0,-2.654425800E-1,-1.082451567E-1,7.330729067E-2,2.958897364E-1
8.920790167E0,-2.871302962E-1,-1.274729222E-1,7.848660648E-2,3.238105933E-1
8.930810167E0,-3.035976887E-1,-1.226874813E-1,7.569310814E-2,3.360851399E-1
8.940830167E0,-3.167587519E-1,-1.018719450E-1,7.526993006E-2,3.411444891E-1
8.950851167E0,-3.291997015E-1,-7.391128689E-2,7.123146206E-2,3.448321954E-1
8.960871167E0,-3.374480307E-1,-4.567884281E-2,6.651180238E-2,3.469604444E-1
8.970891167E0,-3.459243774E-1,-1.355020888E-2,5.615115166E-2,3.507138932E-1
8.980911167E0,-3.499398828E-1,8.211545646E-3,4.651956260E-2,3.531138920E-1
8.990931167E0,-3.628551364E-1,2.761782845E-3,3.924705461E-2,3.649819293E-1
9.000951167E0,-3.747616112E-1,-1.333169825E-2,3.420409560E-2,3.765553340E-1
9.010972167E0,-3.842076957E-1,-4.448715597E-2,3.373859823E-2,3.882434204E-1
9.020992167E0,-3.975834250E-1,-8.855475485E-2,3.505367041E-2,4.088316087E-1
9.031012167E0,-4.072889090E-1,-1.159432903E-1,3.529934585E-2,4.249389906E-1
9.041032167E0,-4.180843234E-1,-1.266052574E-1,3.654677048E-2,4.383595090E-1
9.051052167E0,-4.198910594E-1,-1.125805601E-1,3.679826483E-2,4.362762847E-1
9.061072167E0,-4.279910624E-1,-8.909600228E-2,3.825661168E-2,4.388371172E-1
9.071093167E0,-4.392238855E-1,-6.252291799E-2,3.373390436E-2,4.449322569E-1
9.081113167E0,-4.526576698E-1,-4.448799789E-2,3.786579892E-2,4.564120580E-1
9.091133167E0,-4.618208408E-1,-1.770300604E-2,3.751669079E-2,4.636802643E-1
9.101153167E0,-4.728662968E-1,8.495574817E-3,3.835185990E-2,4.744950733E-1
9.111173167E0,-4.821836054E-1,3.659819812E-2,3.766691312E-2,4.850353119E-1
9.121193167E0,-4.873445332E-1,6.615262479E-2,3.625543788E-2,4.931483758E-1
9.131214167E0,-4.929024279E-1,8.606167883E-2,3.024897166E-2,5.012727963E-1
9.141234167E0,-4.965661466E-1,1.161016002E-1,2.509628795E-2,5.105755020E-1
9.151254167E0,-4.942204952E-1,1.325876117E-1,1.405576430E-2,5.118895752E-1
9.161274167E0,-4.965603352E-1,1.316826791E-1,6.644720212E-3,5.137671133E-1
9.171294167E0,-4.954897761E-1,1.139473319E-1,-6.759092212E-3,5.084680895E-1
9.181315167E0,-4.858606160E-1,8.894557506E-2,-1.495683379E-2,4.941614719E-1
9.191335167E0,-4.768514335E-1,8.162839711E-2,-2.157116495E-2,4.842683141E-1
9.201355167E0,-4.674746990E-1,6.963112205E-2,-2.371207997E-2,4.732265315E-1
9.211375167E0,-4.522183239E-1,6.131283194E-2,-2.783993818E-2,4.572042629E-1
9.221395167E0,-4.318057001E-1,7.989530265E-2,-3.057846613E-2,4.401982106E-1
9.231415167E0,-4.122914672E-1,1.135680079E-1,-3.262059391E-2,4.288893208E-1
9.241436167E0,-3.904748559E-1,1.386616528E-1,-3.665102273E-2,4.159819281E-1
9.251456167E0,-3.707873225E-1,1.473615915E-1,-4.950745776E-2,4.020567939E-1
9.261476167E0,-3.440944552E-1,1.547952741E-1,-6.008872762E-2,3.820644268E-1
9.271496167E0,-3.182319701E-1,1.579878777E-1,-6.239955127E-2,3.607290677E-1
9.281516167E0,-2.905606627E-1,1.529795378E-1,-6.193110347E-2,3.341611876E-1
9.291537167E0,-2.646052837E-1,1.458551586E-1,-6.032528356E-2,3.081052147E-1
9.301557167E0,-2.381092161E-1,1.295416951E-1,-5.856227130E-2,2.773203728E-1
9.311577167E0,-2.186067402E-1,1.009806991E-1,-5.450822413E-2,2.468950282E-1
9.321597167E0,-1.920694113E-1,6.093793735E-2,-5.504059047E-2,2.088864705E-1
9.331617167E0,-1.684046984E-1,2.613901161E-2,-4.674135521E-2,1.767148682E-1
9.341637167E0,-1.482395232E-1,-5.008522421E-3,-4.791181535E-2,1.558704064E-1
9.351658167E0,-1.274107248E-1,-1.826736890E-2,-5.159791186E-2,1.386705955E-1
9.361678167E0,-1.064050496E-1,-1.547291502E-2,-5.031320080E-2,1.187133684E-1
9.371698167E0,-8.425547183E-2,-1.213567331E-2,-5.502245575E-2,1.013594087E-1
9.381718167E0,-6.717555225E-2,-1.304514334E-2,-4.851821437E-2,8.388532476E-2
9.391738167E0,-5.012121424E-2,-1.598236337E-2,-5.012734607E-2,7.266583021E-2
9.401758167E0,-3.294062614E-2,-2.472685277E-2,-4.696723819E-2,6.246938100E-2
9.411779167E0,-1.909657568E-2,-3.954606503E-2,-4.160882905E-2,6.049681907E-2
9.421799167E0,-7.511559874E-3,-4.876885936E-2,-3.643750399E-2,6.133935826E-2
9.431819167E0,-5.258144811E-4,-4.616747051E-2,-3.121073358E-2,5.572989956E-2
9.441839167E0,4.477466457E-3,-3.688715026E-2,-2.765328437E-2,4.631861069E-2
9.451859167E0,7.910992019E-3,-1.854735985E-2,-1.999573782E-2,2.839749783E-2
9.461879167E0,1.311933622E-2,-1.952938270E-3,-1.584919728E-2,2.066707539E-2
9.471900167E0,1.443262398E-2,2.598461136E-2,-1.036840677E-2,3.148022430E-2
9.481920167E0,8.735856041E-3,4.788671434E-2,-6.124126725E-3,4.906075335E-2
9.491940167E0,6.805859972E-3,6.265912950E-2,-3.874766175E-3,6.314665512E-2
9.501960167E0,3.593821544E-3,8.007221669E-2,5.978808622E-5,8.015284782E-2
9.511980167E0,-2.110328525E-3,9.049080312E-2,-8.131334907E-4,9.051905944E-2
9.522001167E0,-8.591397665E-3,9.980654716E-2,-3.565510269E-3,1.002390734E-1
9.532021167E0,-1.082486752E-2,1.017733440E-1,-8.748842403E-3,1.027206578E-1
9.542041167E0,-1.288136002E-2,1.014018357E-1,-8.092906326E-3,1.025366122E-1
9.552061167E0,-1.149976999E-2,9.063358605E-2,-1.262530405E-2,9.222846595E-2
9.562081167E0,-9.657394141E-3,7.426953316E-2,-1.419017836E-2,7.622722597E-2
9.572101167E0,-5.129098892E-3,6.209360436E-2,-1.853035390E-2,6.500228745E-2
9.582122167E0,3.425773233E-3,5.686182529E-2,-2.097167447E-2,6.070267068E-2
9.592142167E0,1.429739222E-2,4.413766786E-2,-2.084776759E-2,5.086431522E-2
9.602162167E0,2.078059129E-2,2.351867408E-2,-2.321185544E-2,3.903525634E-2
9.612182167E0,3.308999538E-2,-2.552329563E-3,-2.151127160E-2,3.954993030E-2
9.622202167E0,3.930634633E-2,-4.452188313E-2,-1.678282768E-2,6.171588324E-2
9.632223167E0,4.574820399E-2,-8.521488309E-2,-1.740128174E-2,9.827145605E-2
9.642243167E0,5.276696384E-2,-1.382179111E-1,-9.564131498E-3,1.482565885E-1
9.652263167E0,6.074944139E-2,-1.967310756E-1,-1.284467429E-2,2.062973495E-1
9.662283167E0,6.138380617E-2,-2.498875111E-1,-8.762581274E-3,2.574655758E-1
9.672303167E0,6.464585662E-2,-2.942939997E-1,-9.668500163E-3,3.014656281E-1
9.682323167E0,6.579820812E-2,-3.182166219E-1,-7.445293479E-3,3.250333137E-1
9.692344167E0,6.961996853E-2,-3.276318014E-1,-9.852975607E-3,3.350919552E-1
9.702364167E0,7.363681495E-2,-3.315764666E-1,-9.091577493E-3,3.397763830E-1
9.712384167E0,7.454942167E-2,-3.125830889E-1,-8.781975135E-3,3.214699470E-1
9.722404167E0,7.997374982E-2,-2.652469873E-1,-7.664246485E-3,2.771470830E-1
9.732424167E0,8.281894028E-2,-1.958092749E-1,-3.999709617E-3,2.126411218E-1
9.742445167E0,9.572781622E-2,-1.123415381E-1,-4.103007959E-4,1.475960850E-1
9.752465167E0,1.032081023E-1,-2.623941191E-2,4.717881791E-3,1.065958607E-1
9.762485167E0,1.125267670E-1,5.660140887E-2,1.648322679E-3,1.259710671E-1
9.772505167E0,1.227971762E-1,1.224867702E-1,-5.331882858E-4,1.734429002E-1
9.782525167E0,1.275213510E-1,1.656377017E-1,-4.238710273E-3,2.090825432E-1
9.792545167E0,1.327846199E-1,1.858556569E-1,-2.719629556E-3,2.284326528E-1
9.802566167E0,1.324810237E-1,1.822337508E-1,-1.284452272E-3,2.253042640E-1
9.812586167E0,1.344515681E-1,1.577565521E-1,-4.085872322E-3,2.073187118E-1
9.822606167E0,1.381160766E-1,1.288825572E-1,-1.645351644E-3,1.889165724E-1
9.832626417E0,1.406100690E-1,9.726654738E-2,-1.690748730E-3,1.709819622E-1
9.842646417E0,1.412758529E-1,5.639794096E-2,2.819847316E-3,1.521431757E-1
9.852667417E0,1.448841095E-1,1.799032465E-2,2.764016390E-3,1.460229323E-1
9.862687417E0,1.477699131E-1,-8.835429326E-3,5.857011769E-3,1.481496426E-1
9.872707417E0,1.491297781E-1,-2.454286069E-2,1.052560192E-2,1.515019176E-1
9.882727417E0,1.498554945E-1,-3.220530599E-2,1.332032308E-2,1.538547431E-1
9.892747417E0,1.517498046E-1,-3.328718618E-2,1.360996068E-2,1.559527845E-1
9.902767417E0,1.505561769E-1,-2.933345735E-2,1.148715522E-2,1.538166729E-1
9.912788417E0,1.524514705E-1,-1.917048544E-2,9.187240154E-3,1.539264881E-1
9.922808417E0,1.501696855E-1,-6.478393450E-3,7.018095348E-3,1.504731128E-1
9.932828417E0,1.478665173E-1,4.167172126E-3,4.885525443E-3,1.480058804E-1
9.942848417E0,1.425609589E-1,1.310793683E-2,8.138043806E-3,1.433934195E-1
9.952868417E0,1.331329048E-1,1.709843241E-2,6.300694775E-3,1.343741994E-1
9.962888417E0,1.194559783E-1,1.369438041E-2,5.219717510E-3,1.203516192E-1
9.972909417E0,1.105039567E-1,1.218873449E-2,5.036157090E-3,1.112881511E-1
9.982929417E0,9.604246169E-2,1.827166043E-2,5.253205076E-3,9.790609882E-2
9.992949417E0,8.611672372E-2,2.861370891E-2,7.628293708E-3,9.106604914E-2
1.000296942E1,6.973748654E-2,4.276334867E-2,1.318657771E-2,8.286076786E-2
1.001298942E1,5.247727409E-2,5.513106659E-2,1.125978120E-2,7.694206569E-2
1.002301042E1,3.442663327E-2,6.303852797E-2,1.835843734E-2,7.413556035E-2
1.003303042E1,1.146345586E-2,6.945390999E-2,1.973293535E-2,7.310708017E-2
1.004305042E1,-8.944105357E-4,7.605588436E-2,2.377774380E-2,7.969114516E-2
1.005307042E1,-1.826832816E-2,7.712250203E-2,2.645959519E-2,8.355670117E-2
1.006309042E1,-4.071318358E-2,5.941727385E-2,2.688863128E-2,7.688286052E-2
1.007311142E1,-6.304740161E-2,3.163987771E-2,2.876459435E-2,7.618043449E-2
1.008313142E1,-8.157953620E-2,-1.232584938E-3,2.725298516E-2,8.602014411E-2
1.009315142E1,-9.733605385E-2,-2.455715835E-2,2.618399821E-2,1.037447019E-1
1.010317142E1,-1.169768646E-1,-4.555058852E-2,2.689719200E-2,1.283818597E-1
1.011319142E1,-1.320647746E-1,-6.204771250E-2,2.045911923E-2,1.473417758E-1
1.012321142E1,-1.421767920E-1,-6.651782990E-2,1.632855646E-2,1.578147130E-1
1.013323242E1,-1.562663615E-1,-7.231850177E-2,1.619168930E-2,1.729488717E-1
1.014325242E1,-1.641895324E-1,-9.134066105E-2,1.258443668E-2,1.883074267E-1
1.015327242E1,-1.717330515E-1,-1.100618094E-1,6.232182961E-3,2.040702893E-1
1.016329242E1,-1.784700453E-1,-1.261142790E-1,5.707273725E-3,2.186068193E-1
1.017331242E1,-1.785404235E-1,-1.208905354E-1,3.143810667E-3,2.156411091E-1
1.018333342E1,-1.763297319E-1,-8.910197765E-2,4.508414771E-3,1.976149351E-1
1.019335342E1,-1.673679352E-1,-3.711547330E-2,3.045540303E-3,1.714609559E-1
1.020337342E1,-1.585824341E-1,2.978473157E-2,2.115031704E-3,1.613691172E-1
1.021339342E1,-1.485644281E-1,9.451378882E-2,9.821779095E-4,1.760829641E-1
1.022341342E1,-1.409597695E-1,1.606051922E-1,8.402314852E-4,2.136922796E-1
1.023343342E1,-1.374186277E-1,2.037650198E-1,-2.052672207E-3,2.457809512E-1
1.024345442E1,-1.252152175E-1,2.633524537E-1,-2.212163527E-4,2.916048945E-1
1.025347442E1,-1.126508564E-1,3.009186387E-1,7.190271281E-4,3.213141135E-1
1.026349442E1,-1.038882583E-1,2.941720486E-1,7.596640382E-3,3.120699815E-1
1.027351442E1,-1.006326526E-1,2.722853720E-1,1.705369726E-2,2.907870066E-1
1.028353442E1,-9.243250638E-2,2.558656335E-1,2.560990117E-2,2.732523699E-1
1.029355542E1,-7.246066630E-2,2.674677074E-1,2.835519798E-2,2.785561701E-1
1.030357542E1,-4.070407525E-2,2.935059667E-1,3.190332651E-2,2.980275096E-1
1.031359542E1,-5.847291090E-3,3.207599521E-1,3.276512772E-2,3.224820790E-1
1.032361542E1,2.462220192E-2,3.545749187E-1,3.835403547E-2,3.574921788E-1
1.033363542E1,7.597294450E-2,3.794767559E-1,3.885112703E-2,3.889523192E-1
1.034365542E1,1.272694319E-1,4.045429826E-1,3.867429122E-2,4.258500133E-1
1.035367642E1,2.078210413E-1,4.479126632E-1,4.048952833E-2,4.954338917E-1
1.036369642E1,3.045923412E-1,5.086444616E-1,4.384697229E-2,5.944898987E-1
1.037371642E1,4.216780663E-1,5.835807323E-1,4.629172757E-2,7.214719584E-1
1.038373642E1,5.526206493E-1,5.983175635E-1,4.890721664E-2,8.159444863E-1
1.039375642E1,6.850112081E-1,5.072120428E-1,5.438141525E-2,8.540853294E-1
1.040377742E1,8.300943971E-1,3.120713234E-1,5.906937644E-2,8.887825438E-1
1.041379742E1,9.844196439E-1,6.183652207E-2,6.801671535E-2,9.887022121E-1
1.042381742E1,1.158559561E0,-2.126118243E-1,8.387344331E-2,1.180888986E0
1.043383742E1,1.333994985E0,-4.913097620E-1,1.076474860E-1,1.425663313E0
1.044385742E1,1.533853531E0,-7.031050920E-1,1.341243684E-1,1.692646676E0
1.045387842E1,1.731053114E0,-8.904205561E-1,1.691163927E-1,1.953968783E0
1.046389842E1,1.927429914E0,-1.044033647E0,1.945200115E-1,2.200643171E0
1.047391842E1,2.125744343E0,-1.139834285E0,2.176801413E-1,2.421857934E0
1.048393842E1,2.307547569E0,-1.172289968E0,2.399921119E-1,2.599352951E0
1.049395842E1,2.496939421E0,-1.110086799E0,2.585587502E-1,2.744786294E0
1.050397842E1,2.638883591E0,-9.835400581E-1,2.765971422E-1,2.829763882E0
1.051399942E1,2.788953066E0,-7.356858253E-1,2.824679613E-1,2.898151305E0
1.052401942E1,2.898663521E0,-4.596640766E-1,2.966162860E-1,2.949834316E0
1.053403942E1,3.026310205E0,-7.871565968E-2,3.037284613E-1,3.042531938E0
1.054405942E1,3.137341976E0,2.654781938E-1,3.182013929E-1,3.164592466E0
1.055407942E1,3.242856026E0,5.674406886E-1,3.264155984E-1,3.308270134E0
1.056410042E1,3.373257637E0,8.201541901E-1,3.267607391E-1,3.486874325E0
1.057412042E1,3.545523405E0,9.664155245E-1,3.217765689E-1,3.688934174E0
1.058414042E1,3.750979424E0,9.169318676E-1,3.215502203E-1,3.874790992E0
1.059416042E1,3.947593451E0,6.849597692E-1,3.129876256E-1,4.018784044E0
1.060418042E1,4.194997311E0,5.228709579E-1,3.205786943E-1,4.239595166E0
1.061420142E1,4.465197563E0,4.962146878E-1,3.458324075E-1,4.505975849E0
1.062422142E1,4.787930489E0,5.656664968E-1,4.042057097E-1,4.838144190E0
1.063424142E1,5.108139992E0,5.207641721E-1,5.186485052E-1,5.160744691E0
1.064426142E1,5.452470303E0,4.414635003E-1,6.335622668E-1,5.506879658E0
1.065428142E1,5.830002785E0,2.994902134E-1,7.279589176E-1,5.882903284E0
1.066430142E1,6.245958805E0,1.501246840E-1,8.489942551E-1,6.305182794E0
1.067432242E1,6.698613644E0,-3.888954222E-2,9.543951750E-1,6.766373275E0
1.068434242E1,7.140615940E0,-3.506444991E-1,1.019641519E0,7.221566063E0
1.069436242E1,7.518928528E0,-7.824676037E-1,1.076186061E0,7.635752628E0
1.070438242E1,7.931326389E0,-1.178537488E0,1.367246151E0,8.134141070E0
1.071440242E1,8.013195992E0,-1.591791868E0,1.387262464E0,8.286712768E0
1.072442342E1,8.224534988E0,-1.753641725E0,1.287465572E0,8.507396939E0
1.073444342E1,8.330594063E0,-1.874659777E0,1.019750834E0,8.599595251E0
1.074446342E1,8.045910835E0,-1.796124935E0,8.294661045E-1,8.285575416E0
1.075448342E1,7.860192299E0,-1.825290680E0,5.217086673E-1,8.086191253E0
1.076450342E1,7.838888168E0,-1.796919942E0,3.832826316E-1,8.051334956E0
1.077452342E1,7.831760406E0,-1.692318082E0,3.187482655E-1,8.018853535E0
1.078454442E1,7.819233418E0,-1.741370320E0,2.570726573E-1,8.014915357E0
1.079456442E1,7.803633690E0,-1.639783025E0,1.851893216E-1,7.976207258E0
1.080458442E1,7.785502911E0,-1.674181461E0,1.059123501E-1,7.964179591E0
1.081460442E1,7.792945862E0,-1.675584316E0,2.455684356E-2,7.971084684E0
1.082462442E1,7.761856556E0,-1.635078430E0,-5.248041824E-2,7.932380025E0
1.083464492E1,7.755244255E0,-1.678300619E0,-1.313091367E-1,7.935852097E0
1.084466492E1,7.742067814E0,-1.673185706E0,-2.062883079E-1,7.923491611E0
1.085468492E1,7.728868961E0,-1.688457251E0,-2.862049639E-1,7.916325953E0
1.086470492E1,7.717978477E0,-1.733750463E0,-3.658305407E-1,7.918769755E0
1.087472492E1,7.693200111E0,-1.735024095E0,-4.522058070E-1,7.899375080E0
1.088474592E1,7.689410686E0,-1.784238458E0,-5.347507596E-1,7.911795116E0
1.089476592E1,7.665217876E0,-1.833148003E0,-6.210446954E-1,7.905801237E0
1.090478592E1,7.640546322E0,-1.867713213E0,-7.112744451E-1,7.897607997E0
1.091480592E1,7.625958920E0,-1.937338233E0,-8.033156991E-1,7.909098873E0
1.092482592E1,7.594208717E0,-1.988162279E0,-8.980016708E-1,7.901341803E0
1.093484692E1,7.574571133E0,-2.065645218E0,-9.978421330E-1,7.914335533E0
1.094486692E1,7.546010017E0,-2.143661976E0,-1.103490472E0,7.921820818E0
1.095488692E1,7.505064487E0,-2.214831352E0,-1.214076638E0,7.918677476E0
1.096490692E1,7.479170322E0,-2.320532560E0,-1.333544493E0,7.943626438E0
1.097492692E1,7.437613010E0,-2.414396763E0,-1.451479435E0,7.953250378E0
1.098494692E1,7.397755146E0,-2.524093151E0,-1.578646660E0,7.974330863E0
1.099496792E1,7.350012779E0,-2.643939972E0,-1.714147806E0,7.996962494E0
1.100498792E1,7.295495510E0,-2.760659933E0,-1.859196544E0,8.018859632E0
1.101500792E1,7.244345188E0,-2.911428452E0,-2.007390976E0,8.061424897E0
1.102502792E1,7.174459457E0,-3.050499678E0,-2.164211988E0,8.090873273E0
1.103504792E1,7.097630978E0,-3.204995871E0,-2.335443020E0,8.130354120E0
1.104506892E1,7.018464088E0,-3.375473738E0,-2.507946491E0,8.181837001E0
1.105508892E1,6.920395851E0,-3.545539141E0,-2.689518929E0,8.227772396E0
1.106510892E1,6.816399574E0,-3.732334614E0,-2.877881050E0,8.287087798E0
1.107512892E1,6.697499275E0,-3.924182653E0,-3.079708338E0,8.351066368E0
1.108514892E1,6.561267376E0,-4.127866268E0,-3.286521912E0,8.419663638E0
1.109516992E1,6.415241718E0,-4.344787121E0,-3.506183624E0,8.504459127E0
1.110518992E1,6.245149136E0,-4.561198235E0,-3.731725931E0,8.586745337E0
1.111520992E1,6.058544636E0,-4.788333416E0,-3.967745781E0,8.681998997E0
1.112522992E1,5.853068829E0,-5.023105621E0,-4.206885815E0,8.785664064E0
1.113524992E1,5.623378277E0,-5.260412693E0,-4.456016064E0,8.896651286E0
1.114526992E1,5.375275612E0,-5.503273010E0,-4.704666615E0,9.017399275E0
1.115529092E1,5.102414608E0,-5.741114616E0,-4.948411465E0,9.136837959E0
1.116531092E1,4.800712585E0,-5.982473850E0,-5.188735008E0,9.260659031E0
1.117533092E1,4.470996380E0,-6.218279839E0,-5.427518845E0,9.386946979E0
1.118535092E1,4.117777824E0,-6.446163177E0,-5.661081314E0,9.516141843E0
1.119537092E1,3.733392239E0,-6.660182953E0,-5.885668278E0,9.640401737E0
1.120539192E1,3.319956779E0,-6.862598419E0,-6.102410316E0,9.765079710E0
1.121541192E1,2.882265329E0,-7.042895317E0,-6.299875259E0,9.879182970E0
1.122543192E1,2.421104908E0,-7.203658581E0,-6.480685711E0,9.987679070E0
1.123545192E1,1.942070961E0,-7.336779594E0,-6.634243488E0,1.008033537E1
1.124547192E1,1.441541553E0,-7.440341949E0,-6.761765003E0,1.015668235E1
1.125549292E1,9.344980121E-1,-7.510144711E0,-6.860857964E0,1.021503461E1
1.126551292E1,4.059548378E-1,-7.547603607E0,-6.928514004E0,1.025355674E1
1.127553292E1,-1.195532903E-1,-7.550468922E0,-6.962132931E0,1.027108411E1
1.128555292E1,-6.482741237E-1,-7.519390583E0,-6.962063789E0,1.026800011E1
1.129557292E1,-1.163196087E0,-7.448557377E0,-6.929726601E0,1.023988002E1
1.130559392E1,-1.676692247E0,-7.349381447E0,-6.866773605E0,1.019692524E1
1.131561392E1,-2.169480324E0,-7.212829113E0,-6.767676353E0,1.012585759E1
1.132563392E1,-2.647102833E0,-7.049388885E0,-6.640778065E0,1.003996864E1
1.133565392E1,-3.098834991E0,-6.859807968E0,-6.489771366E0,9.938655646E0
1.134567392E1,-3.518831253E0,-6.646945000E0,-6.313955784E0,9.819882324E0
1.135569392E1,-3.915930271E0,-6.415290356E0,-6.112619877E0,9.687857451E0
1.136571492E1,-4.287315369E0,-6.165882587E0,-5.897441387E0,9.548769348E0
1.137573492E1,-4.632343769E0,-5.906359196E0,-5.663054466E0,9.402865182E0
1.138575492E1,-4.936868191E0,-5.640482903E0,-5.423317909E0,9.252031780E0
1.139577492E1,-5.219013691E0,-5.367795467E0,-5.182308674E0,9.105364094E0
1.140579492E1,-5.469763279E0,-5.097095013E0,-4.939382076E0,8.960813757E0
1.141581592E1,-5.693101883E0,-4.832620144E0,-4.696368217E0,8.821649559E0
1.142583592E1,-5.890983105E0,-4.570955753E0,-4.453070164E0,8.684880674E0
1.143585592E1,-6.069836617E0,-4.314298630E0,-4.211718082E0,8.555387684E0
1.144587592E1,-6.231009483E0,-4.065898895E0,-3.969651461E0,8.432979647E0
1.145589592E1,-6.366125584E0,-3.823802471E0,-3.741168261E0,8.315368918E0
1.146591692E1,-6.483884811E0,-3.598587751E0,-3.519506931E0,8.208381393E0
1.147593692E1,-6.590337276E0,-3.378278494E0,-3.300544024E0,8.107953000E0
1.148595692E1,-6.678466320E0,-3.168459177E0,-3.091984272E0,8.012578404E0
1.149597692E1,-6.751217365E0,-2.966537476E0,-2.890885830E0,7.920637688E0
1.150599692E1,-6.823052406E0,-2.781026840E0,-2.698673010E0,7.846718450E0
1.151601792E1,-6.878228664E0,-2.604571581E0,-2.513962030E0,7.772633258E0
1.152603792E1,-6.924294949E0,-2.435282469E0,-2.338492632E0,7.703571187E0
1.153605792E1,-6.963100910E0,-2.281648636E0,-2.173842430E0,7.643054736E0
1.154607792E1,-6.994973183E0,-2.138833523E0,-2.013624907E0,7.586761096E0
1.155609792E1,-7.017997265E0,-2.003414392E0,-1.865345001E0,7.532958702E0
1.156611792E1,-4.907013893E0,-2.426991463E0,-1.892920732E0,5.792427972E0
1.157613892E1,-7.545837402E0,2.201624680E1,-5.538139343E-1,2.328006647E1
1.158615892E1,6.573469162E0,-1.548489571E1,-3.976269245E0,1.728592517E1
1.159617892E1,4.088775814E-1,1.029624653E1,-1.946714520E0,1.048663773E1
1.160619892E1,-1.303741574E0,-1.094249010E0,-4.460707903E-1,1.759574420E0
1.161621892E1,4.725195885E0,9.701276779E0,9.987481236E-1,1.083696199E1
1.162623992E1,4.381016254E0,1.067952919E1,1.070383668E0,1.159272912E1
1.163625992E1,1.528113723E0,7.256480217E0,-4.015433490E-1,7.426498081E0
1.164627992E1,-1.148457527E-1,1.223898983E1,-5.653916597E-1,1.225258052E1
1.165629992E1,2.435300201E-1,1.331226444E1,-4.357090592E-1,1.332161904E1
1.166631992E1,2.134953737E0,1.003984356E1,-2.633567452E-1,1.026770875E1
1.167634092E1,-2.197211981E-1,1.044598484E1,2.799217701E-1,1.045204444E1
1.168636092E1,1.205952525E0,-3.331972837E0,1.292111993E0,3.771726115E0
1.169638092E1,2.332972765E0,-4.629055977E0,7.696742415E-1,5.240545735E0
1.170640092E1,-6.669163108E-1,2.754478931E0,-2.864054404E-2,2.834210971E0
1.171642092E1,-2.341473818E0,-2.619494438E0,-1.493780255E0,3.817804369E0
1.172644192E1,-1.563480645E-1,-7.150017262E0,-1.774522185E0,7.368590133E0
1.173646192E1,3.853994012E-1,-6.891745090E0,-1.603923917E0,7.086413410E0
1.174648192E1,-2.092761993E-1,-7.114891052E0,-1.826509595E0,7.348578673E0
1.175650192E1,-8.770342916E-2,-6.657855034E0,-1.970535636E0,6.943899210E0
1.176652192E1,-7.473010570E-2,-4.921293259E0,-2.147016764E0,5.369766560E0
1.177654292E1,1.519246772E-2,-3.494501352E0,-2.226177216E0,4.143384547E0
1.178656292E1,3.661824465E-1,-3.056585073E0,-1.528634310E0,3.437080847E0
1.179658292E1,9.901438355E-1,-1.586484313E0,1.207979083E0,2.226326741E0
1.180660292E1,-8.245479465E-1,-4.538174629E0,1.716607451E0,4.921549494E0
1.181662292E1,-6.860221624E-1,-2.939005852E0,1.506039262E0,3.372912104E0
1.182664442E1,-6.358758807E-1,-3.940452576E0,1.174092174E0,4.160528460E0
1.183666442E1,-3.066886365E-1,-4.561629772E0,9.092571139E-1,4.661466786E0
1.184668442E1,3.950697482E-1,-4.290911198E0,7.609312534E-1,4.375730269E0
1.185670442E1,1.106133342E0,-3.209975243E0,6.322788596E-1,3.453584889E0
1.186672442E1,1.276015401E0,-2.315072060E0,4.947471619E-1,2.689339826E0
1.187674542E1,1.247573137E0,-1.517627954E0,5.538228750E-1,2.041164647E0
1.188676542E1,1.165717959E0,-9.488978982E-1,6.730560660E-1,1.646909242E0
1.189678542E1,1.255350232E0,-4.094989002E-1,8.657057881E-1,1.578936372E0
1.190680542E1,1.311024666E0,1.235724613E-1,1.180068016E0,1.768224067E0
1.191682542E1,1.252137542E0,6.720170379E-1,1.205410123E0,1.863456167E0
1.192684542E1,1.162006497E0,8.514477611E-1,1.156362891E0,1.847267584E0
1.193686642E1,1.043411016E0,5.243141055E-1,1.079309583E0,1.590132386E0
1.194688642E1,8.996874094E-1,-2.592030764E-1,9.426955581E-1,1.328645395E0
1.195690642E1,7.973762155E-1,-9.252993464E-1,8.249492645E-1,1.473950134E0
1.196692642E1,7.673363090E-1,-1.130924106E0,6.441307664E-1,1.510860281E0
1.197694642E1,7.465602160E-1,-8.764122128E-1,3.900058866E-1,1.215547249E0
1.198696742E1,6.501846313E-1,-6.980552673E-1,3.202608824E-1,1.006274438E0
1.199698742E1,3.892979622E-1,-8.022576571E-1,2.948718965E-1,9.392122694E-1
1.200700742E1,2.228368223E-1,-5.155339837E-1,3.520968556E-1,6.628753529E-1
1.201702742E1,1.316199303E-1,-2.859044969E-1,2.944846451E-1,4.310294579E-1
1.202704742E1,5.460477248E-2,-5.144059658E-2,2.286249697E-1,2.406183554E-1
1.203706842E1,-6.085810065E-2,-5.391970277E-3,2.032319456E-1,2.122168831E-1
1.204708842E1,-1.561633050E-1,-1.179384887E-1,1.893326491E-1,2.722927046E-1
1.205710842E1,-2.376900762E-1,-2.756419182E-1,2.119593471E-1,4.211909356E-1
1.206712842E1,-3.067333102E-1,-4.380449355E-1,2.446642965E-1,5.880725356E-1
1.207714842E1,-3.356892169E-1,-6.462496519E-1,3.102917671E-1,7.915850198E-1
1.208716942E1,-3.574648201E-1,-9.046167135E-1,3.200634420E-1,1.023988820E0
1.209718942E1,-2.957233191E-1,-8.393673301E-1,3.690761328E-1,9.634349942E-1
1.210720942E1,-2.216427028E-1,-6.567570567E-1,4.355020225E-1,8.186069453E-1
1.211722942E1,-1.388930529E-1,-5.747786760E-1,5.153858662E-1,7.844006614E-1
1.212724942E1,-9.468671679E-2,-6.089808345E-1,6.000334024E-1,8.601530766E-1
1.213727042E1,-4.653450102E-2,-8.509904742E-1,6.310627460E-1,1.060467084E0
1.214729042E1,4.660769552E-2,-1.160842538E0,6.366039515E-1,1.324761211E0
1.215731042E1,1.270645857E-1,-1.510413408E0,6.566386223E-1,1.651868140E0
1.216733042E1,2.237962037E-1,-1.956848264E0,6.609838009E-1,2.077556125E0
1.217735042E1,2.990816236E-1,-2.466216564E0,6.790037155E-1,2.575406765E0
1.218737142E1,4.023760557E-1,-2.982584000E0,6.423269510E-1,3.077384883E0
1.219739142E1,5.141584873E-1,-3.344611883E0,5.859536529E-1,3.434258185E0
1.220741142E1,6.075547338E-1,-3.557502031E0,5.530934334E-1,3.651144451E0
1.221743142E1,6.746605039E-1,-3.637505770E0,5.286337733E-1,3.737120374E0
1.222745142E1,7.383801341E-1,-3.489988565E0,5.182359815E-1,3.604690547E0
1.223747242E1,8.050290346E-1,-3.199338913E0,5.089505911E-1,3.338094057E0
1.224749242E1,8.338646889E-1,-2.780353785E0,4.834063351E-1,2.942682309E0
1.225751242E1,8.128532767E-1,-2.300703764E0,4.708617032E-1,2.485091347E0
1.226753242E1,8.257208467E-1,-1.812870979E0,4.727754593E-1,2.047396576E0
1.227755242E1,8.436162472E-1,-1.395515084E0,4.896448851E-1,1.702616468E0
1.228757342E1,7.371494770E-1,-7.805994749E-1,5.324240327E-1,1.198415722E0
1.229759342E1,7.074159384E-1,-3.460842073E-1,6.025422215E-1,9.915990708E-1
1.230761342E1,6.429948807E-1,-1.380843967E-1,6.475086212E-1,9.229177275E-1
1.231763342E1,6.064009070E-1,5.173525959E-2,6.615753174E-1,8.989329773E-1
1.232765342E1,5.992996097E-1,2.066814452E-1,6.138315201E-1,8.824207483E-1
1.233767342E1,6.376484036E-1,3.676704466E-1,4.795682430E-1,8.785002810E-1
1.234769442E1,6.239190102E-1,4.612712264E-1,2.688006163E-1,8.211576261E-1
1.235771442E1,5.239732265E-1,3.323792219E-1,9.336648881E-2,6.274880003E-1
1.236773442E1,4.413198829E-1,2.884522378E-1,2.835579962E-2,5.279886210E-1
1.237775442E1,3.814424276E-1,3.154405355E-1,4.714918137E-2,4.972163537E-1
1.238777442E1,3.122114241E-1,3.376907110E-1,6.673939526E-2,4.647204929E-1
1.239779542E1,2.438832223E-1,3.724937141E-1,3.371397778E-2,4.465055716E-1
1.240781542E1,1.880551130E-1,3.333596289E-1,-2.246087417E-2,3.834029976E-1
1.241783542E1,1.727084517E-1,2.597429752E-1,-2.756081522E-2,3.131361062E-1
1.242785542E1,2.039968669E-1,1.748131514E-1,-2.331759967E-2,2.696628823E-1
1.243787642E1,2.137762457E-1,1.603669673E-1,-7.860956341E-2,2.785629388E-1
1.244789642E1,1.783396900E-1,1.360552460E-1,-1.372108161E-1,2.629503433E-1
1.245791642E1,2.019032538E-1,5.647151172E-2,-1.108141020E-1,2.371365023E-1
1.246793642E1,2.419444025E-1,9.698416106E-3,-7.945378125E-2,2.548412379E-1
1.247795642E1,2.654534280E-1,-1.417028159E-2,-6.994872540E-2,2.748802349E-1
1.248797642E1,2.879132032E-1,-6.241519004E-3,-6.449776888E-2,2.951151154E-1
1.249799742E1,3.186052442E-1,3.262206540E-2,-4.716016725E-2,3.237245467E-1
1.250801742E1,3.584210873E-1,2.089661956E-1,-1.763689518E-2,4.152632981E-1
1.251803742E1,4.181310833E-1,4.596232176E-1,1.851553097E-2,6.216348846E-1
1.252805742E1,4.027670622E-1,6.484370828E-1,7.393751293E-2,7.669150621E-1
1.253807742E1,4.330206513E-1,8.039502501E-1,1.569670588E-1,9.265427927E-1
1.254809842E1,4.672385454E-1,7.671049237E-1,2.491049767E-1,9.321025221E-1
1.255811842E1,3.883262873E-1,6.446098089E-1,3.089948893E-1,8.135090367E-1
1.256813842E1,3.801671565E-1,4.877366126E-1,3.088065982E-1,6.912131257E-1
1.257815842E1,4.169912934E-1,3.065652549E-1,2.927903831E-1,5.946345119E-1
1.258817942E1,4.406774342E-1,1.696582735E-1,2.292883694E-1,5.249320786E-1
1.259819942E1,4.479356110E-1,6.709327549E-2,1.999792159E-1,4.951156491E-1
1.260821942E1,4.474075139E-1,-3.911305591E-2,1.932076067E-1,4.889094946E-1
1.261823942E1,4.498842955E-1,-1.325460821E-1,1.770278066E-1,5.013014936E-1
1.262825942E1,4.506115913E-1,-1.893379837E-1,1.623766869E-1,5.150396750E-1
1.263828042E1,4.459523559E-1,-1.967342496E-1,1.543047428E-1,5.112610119E-1
1.264830042E1,4.400768876E-1,-1.667001843E-1,1.270858943E-1,4.874499390E-1
1.265832042E1,4.400806725E-1,-1.014400497E-1,8.999361098E-2,4.604996547E-1
1.266834042E1,4.260804355E-1,-3.287137672E-2,7.585861534E-2,4.340271817E-1
1.267836042E1,4.187646806E-1,2.377003431E-2,4.372010753E-2,4.217111809E-1
1.268838142E1,4.075341225E-1,5.947663635E-2,-3.629564308E-3,4.118673391E-1
1.269840142E1,3.937656879E-1,7.424761355E-2,-2.925051749E-2,4.017707280E-1
1.270842142E1,3.881530762E-1,7.315145433E-2,-5.777936429E-2,3.991896802E-1
1.271844142E1,3.741312623E-1,4.390396550E-2,-7.535894960E-2,3.841623757E-1
1.272846142E1,3.465670049E-1,-4.102557153E-2,-7.230111212E-2,3.563975831E-1
1.273848142E1,3.205139339E-1,-1.693728417E-1,-8.157087117E-2,3.715779169E-1
1.274850242E1,2.908476591E-1,-3.144006133E-1,-1.063694283E-1,4.413100517E-1
1.275852242E1,2.655972242E-1,-4.513165951E-1,-1.309888512E-1,5.398024024E-1
1.276854242E1,2.444357574E-1,-5.592337251E-1,-1.443621814E-1,6.271615726E-1
1.277856242E1,2.183651775E-1,-6.207284331E-1,-1.511423141E-1,6.751526772E-1
1.278858342E1,1.909244955E-1,-6.362786293E-1,-1.449539363E-1,6.799369829E-1
1.279860342E1,1.536037922E-1,-5.910449624E-1,-1.350698918E-1,6.254375654E-1
1.280862342E1,8.379035443E-2,-4.953005910E-1,-1.255368441E-1,5.177866338E-1
1.281864342E1,7.117587328E-2,-2.988998890E-1,-1.171144545E-1,3.288205347E-1
1.282866371E1,7.744921744E-2,-6.872846186E-2,-1.243651733E-1,1.618291663E-1
1.283868471E1,5.943733454E-2,1.205280945E-1,-1.454545707E-1,1.980324479E-1
1.284870471E1,5.018445104E-2,2.821859717E-1,-1.261253357E-1,3.131373534E-1
1.285872471E1,5.193008855E-2,3.533436954E-1,-1.076737046E-1,3.730175972E-1
1.286874471E1,7.461781800E-2,3.202112913E-1,-9.460504353E-2,3.421303905E-1
1.287876471E1,9.364789724E-2,1.857759953E-1,-1.008763611E-1,2.312113520E-1
1.288878571E1,1.177833229E-1,1.139353961E-2,-1.098730490E-1,1.614769668E-1
1.289880571E1,1.433823109E-1,-1.380375624E-1,-1.027906686E-1,2.240061991E-1
1.290882571E1,1.709870398E-1,-2.637680471E-1,-1.044018865E-1,3.312248547E-1
1.291884571E1,1.903286278E-1,-3.631599844E-1,-1.080008000E-1,4.239980349E-1
1.292886571E1,2.084756792E-1,-4.292423427E-1,-1.054915637E-1,4.887121521E-1
1.293888671E1,2.353733778E-1,-4.871736467E-1,-7.248016447E-2,5.458865846E-1
1.294890671E1,2.808521688E-1,-5.099388957E-1,1.429521013E-2,5.823400820E-1
1.295892671E1,3.099630475E-1,-5.442415476E-1,1.287026256E-1,6.394062236E-1
1.296894671E1,2.800852954E-1,-4.863097668E-1,3.347023726E-1,6.534299046E-1
1.297896671E1,3.565694690E-1,-2.821465135E-1,6.090373993E-1,7.600493372E-1
1.298898771E1,4.331814051E-1,-1.762109995E-2,6.810623407E-1,8.073428917E-1
1.299900771E1,4.740889370E-1,1.602188051E-1,4.591802061E-1,6.791736504E-1
1.300902771E1,4.628410637E-1,2.528645992E-1,1.482814699E-1,5.478592430E-1
1.301904771E1,4.921390712E-1,4.083505869E-1,-4.415352270E-2,6.410152891E-1
1.302906771E1,5.421516299E-1,6.832743287E-1,-1.362930387E-1,8.828182092E-1
1.303908871E1,4.751623869E-1,8.175970316E-1,-1.134338379E-1,9.524239789E-1
1.304910871E1,4.322154522E-1,7.502113581E-1,-7.150929421E-2,8.687582276E-1
1.305912871E1,3.963269591E-1,8.450824618E-1,2.628583694E-3,9.334057720E-1
1.306914871E1,3.239957690E-1,8.647584319E-1,8.775439858E-2,9.276212796E-1
1.307916871E1,2.552939951E-1,7.838704586E-1,1.296607852E-1,8.345297113E-1
1.308918971E1,2.267651707E-1,6.334460378E-1,9.768208116E-2,6.798662474E-1
1.309920971E1,2.125387490E-1,3.741072416E-1,3.268134897E-4,4.302662604E-1
1.310922971E1,2.235541195E-1,1.093946323E-1,-8.909947425E-2,2.643526928E-1
1.311924971E1,2.410383970E-1,-1.820582300E-1,-1.506262273E-1,3.375395803E-1
1.312926971E1,2.528042495E-1,-4.198635817E-1,-1.842515618E-1,5.235876754E-1
1.313929071E1,2.509998381E-1,-5.990051627E-1,-2.050037533E-1,6.810540673E-1
1.314931071E1,2.481230795E-1,-7.240443230E-1,-2.192929387E-1,7.961750041E-1
1.315933071E1,2.559553087E-1,-8.281584978E-1,-2.509949803E-1,9.024179174E-1
1.316935071E1,2.738405466E-1,-9.240405560E-1,-2.928121984E-1,1.007262914E0
1.317937071E1,2.716156840E-1,-1.007855654E0,-3.241121173E-1,1.092976104E0
1.318939171E1,2.661609948E-1,-1.034019351E0,-3.599399030E-1,1.126762809E0
1.319941171E1,2.428423613E-1,-9.806303978E-1,-3.734402061E-1,1.077063590E0
1.320943171E1,2.069008797E-1,-8.356657624E-1,-3.723072708E-1,9.379541270E-1
1.321945171E1,1.627446413E-1,-6.070091128E-1,-3.625200391E-1,7.255113094E-1
1.322947171E1,1.155332029E-1,-3.847307861E-1,-3.588017523E-1,5.386134014E-1
1.323949271E1,1.105546430E-1,-1.791319549E-1,-3.167639375E-1,3.803287768E-1
1.324951271E1,1.199196503E-1,-1.090300828E-2,-2.727288306E-1,2.981285178E-1
1.325953271E1,1.267917454E-1,9.747237712E-2,-2.515532970E-1,2.980873568E-1
1.326955271E1,1.489148885E-1,2.064744830E-1,-2.579094470E-1,3.623874156E-1
1.327957371E1,1.768772751E-1,3.057416677E-1,-2.668104172E-1,4.426639093E-1
1.328959371E1,1.898950636E-1,4.100515544E-1,-2.760550380E-1,5.295363977E-1
1.329961371E1,2.149777710E-1,5.480479002E-1,-2.801807523E-1,6.519763776E-1
1.330963371E1,2.331418544E-1,6.752625704E-1,-2.563699782E-1,7.589863167E-1
1.331965371E1,2.758821249E-1,7.659623027E-1,-2.334479392E-1,8.469398658E-1
1.332967471E1,3.314394057E-1,7.703256011E-1,-2.611333728E-1,8.783189909E-1
1.333969471E1,3.962086141E-1,7.708280683E-1,-3.001003563E-1,9.171790450E-1
1.334971471E1,4.632667601E-1,7.214895487E-1,-3.284715414E-1,9.181812530E-1
1.335973471E1,4.997234643E-1,6.795521379E-1,-3.234777749E-1,9.034116003E-1
1.336975471E1,5.072266459E-1,6.341295242E-1,-2.595640421E-1,8.525095987E-1
1.337977571E1,5.181491375E-1,5.728844404E-1,-9.234512597E-2,7.779477701E-1
1.338979571E1,5.209451914E-1,4.741362929E-1,-2.119877189E-2,7.047258365E-1
1.339981571E1,5.355699658E-1,3.182888031E-1,-7.963032462E-3,6.230620839E-1
1.340983571E1,5.291384459E-1,6.153345481E-2,-3.580984473E-2,5.339065517E-1
1.341985571E1,5.326321721E-1,-1.857577860E-1,-1.100955233E-1,5.747382100E-1
1.342987671E1,5.149253607E-1,-4.481664896E-1,-1.755008996E-1,7.048417519E-1
1.343989671E1,4.916762710E-1,-6.705338955E-1,-1.922788471E-1,8.534239365E-1
1.344991671E1,4.728237391E-1,-7.431593537E-1,-1.967870444E-1,9.025371206E-1
1.345993671E1,4.558792710E-1,-7.290211916E-1,-1.571087688E-1,8.740600510E-1
1.346995671E1,4.268412292E-1,-5.725727677E-1,-1.452760696E-1,7.287922514E-1
1.347997771E1,4.001177549E-1,-3.670949340E-1,-1.382060200E-1,5.603158148E-1
1.348999771E1,3.888874650E-1,-6.583148241E-2,-1.289547235E-1,4.149657398E-1
1.350001771E1,4.017722011E-1,2.324721366E-1,-1.095067412E-1,4.769233924E-1
1.351003771E1,3.922282457E-1,4.016973972E-1,-7.767717540E-2,5.667782099E-1
1.352005771E1,3.731785417E-1,4.728138447E-1,-6.736464053E-2,6.060966511E-1
1.353007871E1,3.511637747E-1,4.733512700E-1,-6.806931645E-2,5.933050255E-1
1.354009871E1,3.305789828E-1,4.567943215E-1,-6.030930951E-2,5.670808839E-1
1.355011871E1,3.125486076E-1,4.440420270E-1,-4.515086487E-2,5.448839826E-1
1.356013871E1,2.877303064E-1,4.161900282E-1,-3.601190075E-2,5.072472038E-1
1.357015871E1,2.596230507E-1,3.544209301E-1,-4.002741724E-2,4.411581557E-1
1.358017971E1,2.299238443E-1,2.419290841E-1,-4.307801649E-2,3.365269252E-1
1.359019971E1,1.997643411E-1,1.190300435E-1,-4.782669991E-2,2.374054263E-1
1.360021971E1,1.772457659E-1,1.448367629E-2,-6.843171269E-2,1.905485180E-1
1.361023971E1,1.671505272E-1,-5.206525698E-2,-8.853325248E-2,1.961841648E-1
1.362025971E1,1.507770121E-1,-8.070149273E-2,-9.826287627E-2,1.972359784E-1
1.363028071E1,1.417195946E-1,-5.260247737E-2,-9.819789231E-2,1.802617269E-1
1.364030071E1,1.354567111E-1,-2.580770664E-2,-1.039234698E-1,1.726691804E-1
1.365032071E1,1.196018532E-1,-1.807575114E-2,-1.020209044E-1,1.582390628E-1
1.366034071E1,1.020244509E-1,-5.671423860E-3,-1.009156331E-1,1.436144792E-1
1.367036171E1,7.629804313E-2,5.503732711E-3,-1.046517864E-1,1.296290047E-1
1.368038171E1,5.180969834E-2,3.230071440E-2,-1.003650203E-1,1.174764585E-1
1.369040171E1,2.701992914E-2,6.370683759E-2,-1.049469858E-1,1.257080251E-1
1.370042171E1,7.028165273E-4,9.091380239E-2,-1.077652425E-1,1.409934782E-1
1.371044171E1,-1.498133875E-2,1.020849571E-1,-1.119514629E-1,1.522462118E-1
1.372046271E1,-3.057793155E-2,9.507829696E-2,-1.090782508E-1,1.478950887E-1
1.373048271E1,-4.369399697E-2,7.006801665E-2,-1.058827266E-1,1.342752551E-1
1.374050271E1,-5.230363831E-2,2.254264429E-2,-1.079396904E-1,1.220443286E-1
1.375052271E1,-6.470490992E-2,-3.215602040E-2,-1.106135100E-1,1.321214729E-1
1.376054271E1,-7.720098644E-2,-8.192774653E-2,-1.053099483E-1,1.541503590E-1
1.377056371E1,-8.393932134E-2,-1.208903268E-1,-9.502028674E-2,1.751831489E-1
1.378058371E1,-8.619154990E-2,-1.530542374E-1,-8.352960646E-2,1.945039280E-1
1.379060371E1,-8.101996034E-2,-2.021988779E-1,-7.506129146E-2,2.303970870E-1
1.380062371E1,-6.668066978E-2,-2.631736696E-1,-6.484930217E-2,2.791274334E-1
1.381064371E1,-5.199972913E-2,-3.153788149E-1,-5.710562691E-2,3.246980464E-1
1.382066471E1,-2.986934409E-2,-3.425542116E-1,-5.155014619E-2,3.476966827E-1
1.383068454E1,-3.569032066E-3,-3.319796026E-1,-5.349265411E-2,3.362806247E-1
1.384070454E1,1.715129800E-2,-2.922748625E-1,-4.378146678E-2,2.960330710E-1
1.385072454E1,4.958540201E-2,-2.240473479E-1,-3.771292046E-2,2.325471792E-1
1.386074454E1,8.129677922E-2,-1.514358371E-1,-2.766074799E-2,1.740893336E-1
1.387076554E1,1.167141572E-1,-1.018504426E-1,-1.839427836E-2,1.559937711E-1
1.388078554E1,1.481743008E-1,-5.974255875E-2,-8.757968433E-3,1.600046835E-1
1.389080554E1,1.716356874E-1,9.381007403E-4,-7.525062538E-4,1.716399006E-1
1.390082554E1,1.921521723E-1,8.086649328E-2,9.100520052E-3,2.086735885E-1
1.391084654E1,1.988833249E-1,1.590254903E-1,3.157413751E-2,2.565942510E-1
1.392086654E1,1.935168654E-1,2.103515714E-1,4.459502921E-2,2.892840774E-1
1.393088654E1,1.860680133E-1,2.342385203E-1,6.788384169E-2,3.067526787E-1
1.394090654E1,1.741123796E-1,2.097810507E-1,8.533591032E-2,2.856666371E-1
1.395092654E1,1.540859342E-1,1.583788544E-1,1.030267552E-1,2.438049403E-1
1.396094754E1,1.424977183E-1,9.217399359E-2,1.198589951E-1,2.077686779E-1
1.397096754E1,1.320520043E-1,1.117581595E-2,1.424620450E-1,1.945714906E-1
1.398098754E1,1.184695214E-1,-6.449836493E-2,1.503797919E-1,2.020127431E-1
1.399100754E1,1.093727052E-1,-1.246887371E-1,1.644596457E-1,2.335736391E-1
1.400102754E1,1.026167870E-1,-1.497809142E-1,1.752047688E-1,2.523117877E-1
1.401104854E1,1.016223580E-1,-1.451206505E-1,1.798288077E-1,2.524391153E-1
1.402106854E1,1.006465256E-1,-1.308454722E-1,1.876080930E-1,2.498940921E-1
1.403108854E1,1.076493040E-1,-8.649957180E-2,1.941043437E-1,2.382163823E-1
1.404110854E1,1.145975143E-1,-1.590074785E-2,1.968209147E-1,2.283065845E-1
1.405112854E1,1.217038929E-1,6.595337391E-2,1.967916191E-1,2.406005537E-1
1.406114954E1,1.306047589E-1,1.496372372E-1,1.938821971E-1,2.775593849E-1
1.407116954E1,1.433232129E-1,2.064967901E-1,1.996910870E-1,3.210280329E-1
1.408118954E1,1.560002416E-1,2.306035012E-1,2.027687877E-1,3.444259448E-1
1.409120954E1,1.663756520E-1,2.279912084E-1,1.986589879E-1,3.451466966E-1
1.410123054E1,1.758008748E-1,1.984461397E-1,2.017504126E-1,3.331516876E-1
1.411125054E1,1.767380387E-1,1.549945325E-1,2.002020478E-1,3.087725690E-1
1.412127054E1,1.738974899E-1,1.123614162E-1,1.957014948E-1,2.848938397E-1
1.413129054E1,1.642632484E-1,8.606536686E-2,1.968128234E-1,2.704162525E-1
1.414131054E1,1.512774825E-1,6.779759377E-2,1.950119585E-1,2.559512735E-1
1.415133154E1,1.363174319E-1,4.220328107E-2,1.902808547E-1,2.378452498E-1
1.416135154E1,1.221905574E-1,1.401848276E-3,1.900057793E-1,2.259085958E-1
1.417137154E1,1.102311015E-1,-2.904234454E-2,1.884811074E-1,2.202713811E-1
1.418139154E1,9.372968972E-2,-6.108440459E-2,1.830693185E-1,2.145482104E-1
1.419141154E1,8.445522934E-2,-8.562862873E-2,1.808146834E-1,2.171609946E-1
1.420143254E1,7.322945446E-2,-9.722405672E-2,1.741371751E-1,2.124589983E-1
1.421145254E1,6.230889261E-2,-8.198066056E-2,1.718710959E-1,2.003569325E-1
1.422147254E1,4.471102729E-2,-7.735896111E-2,1.714967042E-1,1.933768455E-1
1.423149254E1,2.810861543E-2,-7.597837597E-2,1.701973379E-1,1.884938771E-1
1.424151354E1,2.117394656E-2,-9.835748374E-2,1.666001976E-1,1.946231139E-1
1.425153354E1,2.575751394E-2,-1.357416064E-1,1.620142311E-1,2.129268520E-1
1.426155354E1,4.419239610E-2,-1.920003444E-1,1.535697430E-1,2.498014534E-1
1.427157354E1,6.727480888E-2,-2.485312670E-1,1.399982721E-1,2.930754285E-1
1.428159354E1,8.968243748E-2,-3.122252822E-1,1.308475286E-1,3.502122816E-1
1.429161454E1,1.196880043E-1,-3.449267745E-1,1.219232753E-1,3.849220482E-1
1.430163454E1,1.375296116E-1,-3.354628682E-1,1.201195568E-1,3.819403591E-1
1.431165454E1,1.580878794E-1,-2.965868413E-1,1.243883371E-1,3.583685121E-1
1.432167454E1,1.680200100E-1,-2.296477854E-1,1.244486421E-1,3.105741355E-1
1.433169454E1,1.696461439E-1,-1.427182108E-1,1.248577014E-1,2.544361363E-1
1.434171554E1,1.645321548E-1,-5.825867504E-2,1.306997836E-1,2.180535178E-1
1.435173554E1,1.574694514E-1,8.622354828E-3,1.282635182E-1,2.032793724E-1
1.436175554E1,1.496104598E-1,6.236705184E-2,1.194467023E-1,2.013466005E-1
1.437177554E1,1.371764243E-1,1.015703827E-1,1.201188862E-1,2.087162209E-1
1.438179554E1,1.230489612E-1,1.165063605E-1,1.124276295E-1,2.033586751E-1
1.439181654E1,1.076095477E-1,1.013021097E-1,1.133730561E-1,1.862669644E-1
1.440183654E1,9.543272853E-2,5.768165365E-2,1.155497953E-1,1.605812381E-1
1.441185654E1,8.538675308E-2,-1.031843480E-2,1.199043319E-1,1.475615685E-1
1.442187654E1,8.188579232E-2,-8.767636120E-2,1.228670776E-1,1.717228757E-1
1.443189754E1,7.705801725E-2,-1.545267552E-1,1.248828247E-1,2.131013280E-1
1.444191754E1,7.006857544E-2,-2.070704997E-1,1.252107471E-1,2.519236557E-1
1.445193754E1,6.963767856E-2,-2.347742915E-1,1.253737360E-1,2.751126095E-1
1.446195754E1,6.497570872E-2,-2.262320071E-1,1.319133341E-1,2.698219626E-1
1.447197754E1,5.323356763E-2,-1.730662584E-1,1.396290511E-1,2.286526065E-1
1.448199854E1,4.886889458E-2,-9.132703394E-2,1.492672712E-1,1.816852064E-1
1.449201854E1,3.952465951E-2,1.685136929E-2,1.538953036E-1,1.597808869E-1
1.450203854E1,2.143643424E-2,1.274803728E-1,1.540824771E-1,2.011272630E-1
1.451205854E1,7.399711292E-3,2.094442099E-1,1.600753963E-1,2.637153111E-1
1.452207954E1,-7.685351186E-3,2.625671625E-1,1.638290435E-1,3.095812251E-1
1.453209954E1,-2.547792904E-2,2.723260522E-1,1.638125330E-1,3.188183645E-1
1.454211954E1,-5.098894984E-2,2.545158863E-1,1.554038525E-1,3.025368849E-1
1.455213954E1,-7.265056670E-2,2.017341405E-1,1.524352282E-1,2.630803434E-1
1.456215954E1,-9.460707009E-2,1.333495975E-1,1.507316530E-1,2.223795046E-1
1.457218054E1,-1.194588915E-1,4.333207756E-2,1.497689188E-1,1.964149300E-1
1.458220054E1,-1.417443901E-1,-6.023444980E-2,1.477777064E-1,2.134429937E-1
1.459222054E1,-1.591452211E-1,-1.627674848E-1,1.373810023E-1,2.658834243E-1
1.460224054E1,-1.695647985E-1,-2.555590570E-1,1.302125007E-1,3.331935591E-1
1.461226054E1,-1.777074039E-1,-3.331087232E-1,1.251213253E-1,3.977394736E-1
1.462228154E1,-1.843460798E-1,-3.883655667E-1,1.211910471E-1,4.466526172E-1
1.463230154E1,-1.768764406E-1,-4.115662277E-1,1.128644049E-1,4.619636446E-1
1.464232154E1,-1.657501012E-1,-3.943043053E-1,1.063413024E-1,4.407464734E-1
1.465234154E1,-1.498896480E-1,-3.335781097E-1,1.010051295E-1,3.793986005E-1
1.466236154E1,-1.298231632E-1,-2.284142673E-1,9.120276570E-2,2.781098266E-1
1.467238254E1,-1.128809229E-1,-1.245677620E-1,8.609402180E-2,1.888687657E-1
1.468240254E1,-9.781126678E-2,-3.514204174E-2,9.260105342E-2,1.392011570E-1
1.469242254E1,-8.806462586E-2,3.371505067E-2,8.468959481E-2,1.267454553E-1
1.470244254E1,-8.174082637E-2,9.143219888E-2,8.031325787E-2,1.466002356E-1
1.471246354E1,-8.052722365E-2,1.278045923E-1,8.608352393E-2,1.738649494E-1
1.472248354E1,-7.518643886E-2,1.485014111E-1,7.701509446E-2,1.834039107E-1
1.473250354E1,-7.355311513E-2,1.589298099E-1,7.382702082E-2,1.900504518E-1
1.474252354E1,-7.438019663E-2,1.523324400E-1,6.740885228E-2,1.824322869E-1
1.475254354E1,-7.324489206E-2,1.247066706E-1,6.412278116E-2,1.582033469E-1
1.476256454E1,-7.410245389E-2,8.331804723E-2,5.680059269E-2,1.251374364E-1
1.477258454E1,-7.945034653E-2,3.571324795E-2,5.347483605E-2,1.022122876E-1
1.478260454E1,-8.769447356E-2,-1.055158395E-2,4.416983202E-2,9.875540835E-2
1.479262454E1,-9.180186689E-2,-4.929578304E-2,4.275915772E-2,1.126321560E-1
1.480264454E1,-9.773662686E-2,-7.611086965E-2,4.072742164E-2,1.303995229E-1
1.481266554E1,-9.842904657E-2,-9.063202888E-2,3.481334075E-2,1.382548754E-1
1.482268554E1,-9.275291115E-2,-9.436024725E-2,3.536485136E-2,1.369585028E-1
1.483270567E1,-8.989320695E-2,-8.158532530E-2,3.832974657E-2,1.273032735E-1
1.484272567E1,-7.708882540E-2,-7.023148239E-2,3.860539570E-2,1.112003808E-1
1.485274667E1,-6.690303236E-2,-5.948376656E-2,3.711775318E-2,9.691265048E-2
1.486276667E1,-5.613056570E-2,-3.089794889E-2,2.894675732E-2,7.030816746E-2
1.487278667E1,-4.625663161E-2,7.311486639E-3,2.282095328E-2,5.209539052E-2
1.488280667E1,-3.154644370E-2,3.704015911E-2,1.165753603E-2,5.003048714E-2
1.489282667E1,-1.399913896E-2,6.650617719E-2,5.453702994E-3,6.818203848E-2
1.490284767E1,2.461420838E-3,8.144403994E-2,-3.963925876E-3,8.157758848E-2
1.491286767E1,2.683813311E-2,1.066077203E-1,-2.094317600E-2,1.119111613E-1
1.492288767E1,4.194764048E-2,1.379203498E-1,-3.333928064E-2,1.479632896E-1
1.493290767E1,6.488997489E-2,1.655666232E-1,-4.211705923E-2,1.827480841E-1
1.494292867E1,8.167932928E-2,1.947393268E-1,-5.692160875E-2,2.187121117E-1
1.495294867E1,9.762074798E-2,2.302368730E-1,-6.774762273E-2,2.590918149E-1
1.496296867E1,1.019224301E-1,2.491283566E-1,-7.788343728E-2,2.802123295E-1
1.497298867E1,1.121265963E-1,2.537550628E-1,-8.600102365E-2,2.904482425E-1
1.498300867E1,1.191458404E-1,2.409786582E-1,-9.916190058E-2,2.865301512E-1
1.499302967E1,1.248793602E-1,2.179074287E-1,-1.168492809E-1,2.770058782E-1
1.500304967E1,1.264045984E-1,1.801171899E-1,-1.268391907E-1,2.539852454E-1
1.501306967E1,1.240809932E-1,1.268952340E-1,-1.341386586E-1,2.224672404E-1
1.502308967E1,1.272311360E-1,6.336730719E-2,-1.398506612E-1,1.994025702E-1
1.503310967E1,1.258390993E-1,-1.274583116E-2,-1.519129127E-1,1.976751582E-1
1.504313067E1,1.291423440E-1,-8.476386964E-2,-1.561318934E-1,2.196356682E-1
1.505315067E1,1.291726977E-1,-1.519026905E-1,-1.580997109E-1,2.544710825E-1
1.506317067E1,1.246404871E-1,-2.013309747E-1,-1.620682180E-1,2.869416660E-1
1.507319067E1,1.165700406E-1,-2.194892019E-1,-1.651715934E-1,2.984053273E-1
1.508321167E1,1.076418385E-1,-2.220434248E-1,-1.563143283E-1,2.921030934E-1
1.509323167E1,9.078375995E-2,-2.075286657E-1,-1.504979879E-1,2.719549273E-1
1.510325167E1,7.932161540E-2,-1.793482751E-1,-1.457080990E-1,2.443124486E-1
1.511327167E1,6.611792743E-2,-1.438427418E-1,-1.439362913E-1,2.139625450E-1
1.512329167E1,5.392274633E-2,-9.419941902E-2,-1.390607506E-1,1.764060245E-1
1.513331267E1,4.743289202E-2,-2.501342446E-2,-1.357776076E-1,1.459832503E-1
1.514333267E1,3.554632887E-2,6.008851528E-2,-1.366761178E-1,1.534748590E-1
1.515335267E1,2.447956428E-2,1.365063339E-1,-1.446120739E-1,2.003643686E-1
1.516337267E1,1.177649759E-2,1.738708615E-1,-1.496215463E-1,2.296875475E-1
1.517339367E1,1.923067495E-3,1.747736633E-1,-1.627847552E-1,2.388480858E-1
1.518341367E1,-9.150778875E-3,1.367546767E-1,-1.739973277E-1,2.214963846E-1
1.519343367E1,-1.579509862E-2,6.793033332E-2,-1.879778653E-1,2.004986114E-1
1.520345367E1,-2.979912981E-2,-1.413446572E-2,-2.073747367E-1,2.099810769E-1
1.521347367E1,-3.364153951E-2,-1.021788418E-1,-2.214492857E-1,2.461951564E-1
1.522349467E1,-4.125440121E-2,-1.753058881E-1,-2.313596308E-1,2.931916758E-1
1.523351467E1,-4.819326103E-2,-2.407384217E-1,-2.339586020E-1,3.391374434E-1
1.524353467E1,-5.823544040E-2,-2.965458632E-1,-2.401888520E-1,3.860330298E-1
1.525355467E1,-6.459240615E-2,-3.281796873E-1,-2.351797074E-1,4.088808883E-1
1.526357467E1,-7.116569579E-2,-3.328214884E-1,-2.354052365E-1,4.138240263E-1
1.527359567E1,-7.748750597E-2,-2.998478115E-1,-2.268093526E-1,3.838691262E-1
1.528361567E1,-8.104478568E-2,-2.326841056E-1,-2.171627730E-1,3.284354127E-1
1.529363567E1,-8.428478241E-2,-1.341884434E-1,-2.116761357E-1,2.644187007E-1
1.530365567E1,-8.982180059E-2,-3.121923283E-2,-2.044488937E-1,2.254815879E-1
1.531367667E1,-9.545625746E-2,3.853401542E-2,-2.060036361E-1,2.302916966E-1
1.532369667E1,-1.069668233E-1,6.848395616E-2,-1.929964870E-1,2.310402509E-1
1.533371667E1,-1.216083467E-1,7.257217169E-2,-1.846093833E-1,2.326713014E-1
1.534373667E1,-1.356175691E-1,5.003295094E-2,-1.729482561E-1,2.254030180E-1
1.535375767E1,-1.495088786E-1,1.606007107E-2,-1.630578041E-1,2.218077504E-1
1.536377767E1,-1.650415808E-1,-8.816249669E-3,-1.520682722E-1,2.245912043E-1
1.537379767E1,-1.787102669E-1,-3.041395172E-2,-1.400931031E-1,2.291035694E-1
1.538381767E1,-1.895943284E-1,-4.306169227E-2,-1.285052150E-1,2.330534467E-1
1.539383767E1,-1.995518804E-1,-4.709771276E-2,-1.201689765E-1,2.376546453E-1
1.540385867E1,-2.033190727E-1,-3.751707822E-2,-1.096605957E-1,2.340333795E-1
1.541387867E1,-2.085300684E-1,-4.775267094E-2,-9.916187823E-2,2.357926740E-1
1.542389867E1,-2.069678605E-1,-6.443550438E-2,-9.337802976E-2,2.360234860E-1
1.543391867E1,-2.012633681E-1,-9.249377251E-2,-8.619681746E-2,2.376803161E-1
1.544393867E1,-1.981332600E-1,-1.255940497E-1,-7.926066965E-2,2.476144337E-1
1.545395967E1,-1.867788732E-1,-1.444345862E-1,-7.997040451E-2,2.492849028E-1
1.546397967E1,-1.823291630E-1,-1.484182477E-1,-6.329706311E-2,2.434715961E-1
1.547399967E1,-1.721177995E-1,-1.331287622E-1,-5.352139473E-2,2.240811102E-1
1.548401967E1,-1.641327441E-1,-1.112061590E-1,-4.185673967E-2,2.026286113E-1
1.549404067E1,-1.563517898E-1,-8.376148343E-2,-2.799711935E-2,1.795708968E-1
1.550406067E1,-1.427533031E-1,-3.363380954E-2,-1.512150653E-2,1.474394745E-1
1.551408067E1,-1.363838017E-1,2.601700276E-2,-7.035615854E-3,1.390213138E-1
1.552410067E1,-1.263969541E-1,8.425820619E-2,-5.481661763E-3,1.520055391E-1
1.553412067E1,-1.191963032E-1,1.251177639E-1,1.101688761E-2,1.731576892E-1
1.554414167E1,-1.075833887E-1,1.324325800E-1,1.671187393E-2,1.714405451E-1
1.555416167E1,-9.689931571E-2,1.038981378E-1,1.893534698E-2,1.433277635E-1
1.556418167E1,-8.088707179E-2,4.649648070E-2,2.353095636E-2,9.622030455E-2
1.557420167E1,-6.713238358E-2,-1.951449364E-2,2.562792972E-2,7.446048059E-2
1.558422267E1,-5.318211019E-2,-8.393375576E-2,3.100389056E-2,1.040886806E-1
1.559424267E1,-2.881338634E-2,-1.456770152E-1,3.750706464E-2,1.531626060E-1
1.560426267E1,1.685953233E-3,-1.976355165E-1,4.221301898E-2,2.021004176E-1
1.561428267E1,3.830415010E-2,-2.218135595E-1,4.620802775E-2,2.297904370E-1
1.562430267E1,6.920244545E-2,-2.153861672E-1,5.528134108E-2,2.328866809E-1
1.563432367E1,9.599410743E-2,-1.621189564E-1,6.473290175E-2,1.992179040E-1
1.564434367E1,1.183726862E-1,-6.613339484E-2,7.536832988E-2,1.551325366E-1
1.565436367E1,1.291512996E-1,5.467158556E-2,9.234651178E-2,1.679193815E-1
1.566438367E1,1.385300308E-1,1.683610827E-1,1.036896855E-1,2.414281974E-1
1.567440467E1,1.411226094E-1,2.592529058E-1,1.189421415E-1,3.182371649E-1
1.568442467E1,1.351305395E-1,3.132733703E-1,1.314772964E-1,3.656319826E-1
1.569444467E1,1.236597598E-1,3.252607882E-1,1.442383677E-1,3.766842487E-1
1.570446467E1,9.719183296E-2,2.809359133E-1,1.573244482E-1,3.363364711E-1
1.571448467E1,7.665833086E-2,1.836935133E-1,1.743313968E-1,2.645963764E-1
1.572450567E1,6.420236826E-2,6.989684701E-2,1.895802319E-1,2.120098527E-1
1.573452567E1,5.280031264E-2,-3.750870004E-2,1.977548003E-1,2.080906933E-1
1.574454567E1,5.046163872E-2,-1.141577661E-1,2.110483348E-1,2.451933363E-1
1.575456567E1,5.209841952E-2,-1.508720964E-1,2.250480354E-1,2.759044273E-1
1.576458667E1,5.514021963E-2,-1.412708908E-1,2.324856967E-1,2.775743280E-1
1.577460667E1,5.925080925E-2,-9.886246175E-2,2.482180595E-1,2.736725230E-1
1.578462667E1,6.554786116E-2,-3.846816346E-2,2.569285631E-1,2.679339625E-1
1.579464667E1,7.388275117E-2,2.257282287E-2,2.703386247E-1,2.811603906E-1
1.580466667E1,8.271899819E-2,7.690732181E-2,2.798861563E-1,3.018168804E-1
1.581468767E1,9.234233201E-2,1.219570935E-1,2.881448865E-1,3.262332211E-1
1.582470767E1,9.910364449E-2,1.688257158E-1,2.906314135E-1,3.504144306E-1
1.583472704E1,1.095528156E-1,2.149540633E-1,2.954277694E-1,3.814244823E-1
1.584474704E1,1.138155162E-1,2.606254220E-1,2.943506837E-1,4.092944018E-1
1.585476804E1,1.177495420E-1,2.979693115E-1,2.883961201E-1,4.310719050E-1
1.586478804E1,1.155709848E-1,3.158646524E-1,2.822802663E-1,4.391005351E-1
1.587480804E1,1.105884761E-1,3.086658418E-1,2.711317241E-1,4.254607206E-1
1.588482804E1,1.072311550E-1,2.921582162E-1,2.533023953E-1,4.012692954E-1
1.589484904E1,9.399817139E-2,2.638789117E-1,2.368102223E-1,3.668062399E-1
1.590486904E1,8.087944239E-2,2.231901437E-1,2.188025117E-1,3.228465016E-1
1.591488904E1,6.643366069E-2,1.613443494E-1,2.032163590E-1,2.678475666E-1
1.592490904E1,5.526405573E-2,8.196803927E-2,1.912322640E-1,2.152734404E-1
1.593492904E1,4.270751774E-2,-1.029131375E-2,1.697251052E-1,1.753181523E-1
1.594495004E1,3.578596190E-2,-1.091595739E-1,1.504278481E-1,1.892748930E-1
1.595497004E1,2.843164280E-2,-1.768182367E-1,1.388628036E-1,2.266184577E-1
1.596499004E1,1.968695037E-2,-2.086102217E-1,1.239989176E-1,2.434779912E-1
1.597501004E1,1.256326120E-2,-1.897787452E-1,1.151590869E-1,2.223407811E-1
1.598503004E1,7.772905752E-3,-1.375693977E-1,1.094266027E-1,1.759543652E-1
1.599505104E1,-1.482644118E-3,-5.942054093E-2,1.040427536E-1,1.198244278E-1
1.600507104E1,-9.890892543E-3,5.430716090E-3,1.016048044E-1,1.022294415E-1
1.601509104E1,-2.124661207E-2,4.566282406E-2,1.009880155E-1,1.128498618E-1
