"Time (s)","Gyroscope x (rad/s)","Gyroscope y (rad/s)","Gyroscope z (rad/s)","Absolute (rad/s)"
2.480850000E-2,-1.230574548E-1,-2.208731137E-2,4.646732807E-1,4.811987576E-1
3.482850000E-2,-1.116036326E-1,6.209081504E-3,4.615137577E-1,4.748566858E-1
4.484950000E-2,-1.026618034E-1,3.940485418E-2,4.607465267E-1,4.736871861E-1
5.486925000E-2,-9.704528749E-2,7.498259842E-2,4.562404752E-1,4.724357619E-1
6.488925000E-2,-9.387239814E-2,1.163588017E-1,4.494824409E-1,4.736938490E-1
7.490925000E-2,-8.553364128E-2,1.626311839E-1,4.418923557E-1,4.785747170E-1
8.493025000E-2,-7.524211705E-2,1.892199218E-1,4.370563328E-1,4.821657319E-1
9.495025000E-2,-6.369542331E-2,1.889591217E-1,4.242203832E-1,4.687489628E-1
1.049702500E-1,-5.516344681E-2,1.532908827E-1,4.127658606E-1,4.437530352E-1
1.149912500E-1,-4.628859460E-2,9.767896682E-2,3.978862166E-1,4.123072349E-1
1.250112500E-1,-3.646792099E-2,3.829526901E-2,3.790177107E-1,3.826889885E-1
1.350312500E-1,-2.913442254E-2,-6.440529134E-3,3.655141294E-1,3.667299739E-1
1.450522500E-1,-2.648484334E-2,-2.417957969E-2,3.493458033E-1,3.511817040E-1
1.550722500E-1,-2.153510228E-2,-1.916253939E-2,3.377878666E-1,3.390156432E-1
1.650922500E-1,-2.048395202E-2,2.703877166E-3,3.240052164E-1,3.246633387E-1
1.751122500E-1,-2.376098000E-2,4.166707397E-2,3.060771525E-1,3.098127701E-1
1.851332500E-1,-3.128467500E-2,8.621270955E-2,2.927094102E-1,3.067411955E-1
1.951532500E-1,-3.542070091E-2,1.379334629E-1,2.795811296E-1,3.137608552E-1
2.051732500E-1,-4.658680409E-2,1.795711815E-1,2.652778327E-1,3.237104696E-1
2.151942500E-1,-5.536247417E-2,2.012639642E-1,2.542347908E-1,3.289491080E-1
2.252142500E-1,-6.178309396E-2,1.939647794E-1,2.377926856E-1,3.130253148E-1
2.352342500E-1,-5.567125231E-2,1.676586419E-1,2.093640268E-1,2.739379570E-1
2.452542500E-1,-1.783998124E-2,1.838639826E-1,1.518458724E-1,2.391263222E-1
2.552752500E-1,3.221557289E-2,2.611029446E-1,9.517523646E-2,2.797693987E-1
2.652952500E-1,6.545235217E-2,3.493356109E-1,6.146467105E-2,3.606900126E-1
2.753152500E-1,7.805427909E-2,3.893857896E-1,5.709518865E-2,4.012151844E-1
2.853362500E-1,7.536128908E-2,3.930566907E-1,6.225666031E-2,4.050293542E-1
2.953562500E-1,6.819058210E-2,3.795737624E-1,7.231023163E-2,3.923709548E-1
3.053762500E-1,4.949572310E-2,3.529373705E-1,8.819571882E-2,3.671417968E-1
3.153962500E-1,2.133776434E-2,3.161313832E-1,9.944330156E-2,3.320893281E-1
3.254172500E-1,-1.516458672E-2,2.584483922E-1,1.128874719E-1,2.824342710E-1
3.354372500E-1,-5.323177204E-2,1.794993430E-1,1.191795245E-1,2.219400702E-1
3.454572500E-1,-9.847860783E-2,7.718122005E-2,1.228365824E-1,1.753391083E-1
3.554782500E-1,-1.445289850E-1,-4.294583201E-2,1.219717413E-1,1.939331784E-1
3.654982500E-1,-1.880072206E-1,-1.697296053E-1,1.166387573E-1,2.788538213E-1
3.755182500E-1,-2.335052937E-1,-2.891551852E-1,1.116095483E-1,3.880620242E-1
3.855382500E-1,-2.758111954E-1,-3.827418387E-1,1.025830284E-1,4.827902322E-1
3.955592500E-1,-3.079953790E-1,-4.256065488E-1,1.024346352E-1,5.352522231E-1
4.055792500E-1,-3.281829357E-1,-4.182091057E-1,1.127690300E-1,5.434332982E-1
4.155992500E-1,-3.457279503E-1,-3.666864634E-1,1.278766692E-1,5.199415550E-1
4.256202500E-1,-3.611905277E-1,-2.963321209E-1,1.432289928E-1,4.886572086E-1
4.356402500E-1,-3.690728843E-1,-2.248337865E-1,1.564911902E-1,4.596243228E-1
4.456602500E-1,-3.796863854E-1,-1.716816127E-1,1.665763110E-1,4.487582810E-1
4.556812500E-1,-3.778773844E-1,-1.487348825E-1,1.762999445E-1,4.427132857E-1
4.657012500E-1,-3.760938644E-1,-1.599726230E-1,1.781431139E-1,4.458394375E-1
4.757212500E-1,-3.648948967E-1,-1.945023239E-1,1.832300723E-1,4.522750259E-1
4.857412500E-1,-3.477185667E-1,-2.482481003E-1,1.867142916E-1,4.662590992E-1
4.957622500E-1,-3.290608823E-1,-3.017830253E-1,1.928799897E-1,4.863709994E-1
5.057822500E-1,-2.965841591E-1,-3.586702645E-1,1.974193454E-1,5.055501162E-1
5.158022500E-1,-2.595959306E-1,-4.263179004E-1,2.022394985E-1,5.385515891E-1
5.258232500E-1,-2.222546935E-1,-5.157540441E-1,2.070795298E-1,5.985660485E-1
5.358432500E-1,-1.810135543E-1,-6.315037608E-1,2.053999007E-1,6.882964666E-1
5.458632500E-1,-1.426144838E-1,-7.586604357E-1,2.009833157E-1,7.976834214E-1
5.558832500E-1,-1.090669334E-1,-8.947243690E-1,1.881342232E-1,9.207723815E-1
5.659042500E-1,-8.312055469E-2,-1.025207043E0,1.695416272E-1,1.042450416E0
5.759242500E-1,-6.021072716E-2,-1.125206351E0,1.488400996E-1,1.136603730E0
5.859442500E-1,-4.119709134E-2,-1.179457903E0,1.298160702E-1,1.187295396E0
5.959652500E-1,-2.458856627E-2,-1.192610145E0,1.116542891E-1,1.198077725E0
6.059852500E-1,-1.950778812E-2,-1.161597610E0,9.533843398E-2,1.165666752E0
6.160052500E-1,-1.232702751E-2,-1.086582184E0,7.226145267E-2,1.089052118E0
6.260262500E-1,-5.059261806E-3,-9.873932600E-1,5.147920176E-2,9.887472651E-1
6.360462500E-1,-1.301729120E-3,-8.754940629E-1,2.379868180E-2,8.758184321E-1
6.460662500E-1,5.840552039E-4,-7.499873042E-1,-2.211613581E-3,7.499907925E-1
6.560862500E-1,-9.882962331E-4,-6.015586257E-1,-3.157481924E-2,6.023875215E-1
6.661072500E-1,-7.560444996E-3,-4.459182024E-1,-6.030100957E-2,4.500404596E-1
6.761272500E-1,-2.981295809E-2,-3.021993637E-1,-8.886685222E-2,3.164025684E-1
6.861472500E-1,-5.261334404E-2,-1.701358706E-1,-1.186585650E-1,2.139958726E-1
6.961682500E-1,-8.609661460E-2,-6.306575239E-2,-1.504728198E-1,1.844776021E-1
7.061882500E-1,-1.281327456E-1,2.206325345E-2,-1.895919889E-1,2.298910827E-1
7.162082500E-1,-1.678587496E-1,9.017328173E-2,-2.162729055E-1,2.882390505E-1
7.262282500E-1,-2.102746516E-1,1.350587308E-1,-2.558261752E-1,3.576357390E-1
7.362492500E-1,-2.474521399E-1,1.361005455E-1,-2.893396914E-1,4.043184105E-1
7.462692500E-1,-2.708663940E-1,1.069706231E-1,-3.289645910E-1,4.393506797E-1
7.562892500E-1,-2.888028920E-1,5.445775017E-2,-3.641757369E-1,4.679708584E-1
7.663102500E-1,-2.994523644E-1,1.226486173E-3,-3.988487720E-1,4.987520083E-1
7.763302500E-1,-2.980991900E-1,-4.656500369E-2,-4.217700660E-1,5.185763350E-1
7.863502500E-1,-2.930440009E-1,-7.715593278E-2,-4.473467767E-1,5.403211666E-1
7.963702500E-1,-2.795065641E-1,-8.505930007E-2,-4.694934785E-1,5.529766092E-1
8.063912500E-1,-2.610977292E-1,-5.318312347E-2,-4.896402955E-1,5.574478342E-1
8.164112500E-1,-2.343527824E-1,1.057158411E-2,-4.978029430E-1,5.503096901E-1
8.264312500E-1,-2.120972872E-1,7.780734450E-2,-4.986221492E-1,5.474150982E-1
8.364522500E-1,-1.932306290E-1,1.302320361E-1,-4.945612550E-1,5.467076862E-1
8.464722500E-1,-1.763688177E-1,1.530832797E-1,-4.826683700E-1,5.361988491E-1
8.564922500E-1,-1.709993631E-1,1.121545807E-1,-4.663007855E-1,5.091717340E-1
8.665122500E-1,-1.801638305E-1,-1.468592230E-2,-4.522099793E-1,4.869995354E-1
8.765332500E-1,-1.967820078E-1,-2.274758816E-1,-4.464183450E-1,5.382915326E-1
8.865532500E-1,-2.399135083E-1,-5.075594783E-1,-4.515507817E-1,7.204673649E-1
8.965732500E-1,-2.823703587E-1,-7.660834193E-1,-4.870935678E-1,9.507244441E-1
9.065942500E-1,-3.241897225E-1,-9.281277061E-1,-5.258988142E-1,1.114939271E0
9.166142500E-1,-3.548244834E-1,-1.009521484E0,-5.701200962E-1,1.212464831E0
9.266342500E-1,-3.832026124E-1,-1.007039905E0,-6.167014241E-1,1.241488727E0
9.366552500E-1,-4.103306830E-1,-9.403423667E-1,-6.692474484E-1,1.224951911E0
9.466752500E-1,-4.438252747E-1,-8.348178267E-1,-7.183800936E-1,1.187422266E0
9.566952500E-1,-4.964486659E-1,-6.947866082E-1,-7.659199238E-1,1.147093300E0
9.667152500E-1,-5.520623922E-1,-4.929398000E-1,-8.141593933E-1,1.100280896E0
9.767362500E-1,-5.893580914E-1,-2.149375528E-1,-8.545840979E-1,1.060120319E0
9.867562500E-1,-6.033498049E-1,1.090141609E-1,-8.870224953E-1,1.078296797E0
9.967762500E-1,-5.895655751E-1,4.341631234E-1,-9.135907292E-1,1.170783159E0
1.006797250E0,-5.604108572E-1,7.282898426E-1,-9.295260310E-1,1.307090305E0
1.016817250E0,-5.185859799E-1,9.531754851E-1,-9.295110703E-1,1.428798710E0
1.026837250E0,-4.828596413E-1,1.076178312E0,-9.163433313E-1,1.493652668E0
1.036857250E0,-4.333513677E-1,1.122325659E0,-8.958883286E-1,1.500008063E0
1.046878250E0,-3.789485693E-1,1.098188162E0,-8.564138412E-1,1.443282344E0
1.056897875E0,-3.107443452E-1,9.660606384E-1,-8.072115183E-1,1.296697976E0
1.066917875E0,-2.478242666E-1,7.357211709E-1,-7.608522773E-1,1.087013660E0
1.076938875E0,-1.845985502E-1,4.511620402E-1,-7.125544548E-1,8.633409885E-1
1.086958875E0,-1.269190013E-1,1.554028094E-1,-6.686596870E-1,6.981147779E-1
1.096978875E0,-8.580096811E-2,-8.740535378E-2,-6.217340231E-1,6.336834363E-1
1.106999875E0,-4.429506510E-2,-2.345497906E-1,-5.705837607E-1,6.184993816E-1
1.117019875E0,-6.444984116E-3,-2.801598310E-1,-5.102185607E-1,5.821117147E-1
1.127039875E0,3.045551106E-2,-2.518522739E-1,-4.464039207E-1,5.134525941E-1
1.137059875E0,6.773784757E-2,-1.737932861E-1,-3.840967119E-1,4.269927474E-1
1.147080875E0,1.009820849E-1,-6.896620244E-2,-3.132470548E-1,3.362698855E-1
1.157100875E0,1.320592016E-1,3.714146465E-2,-2.390813082E-1,2.756428723E-1
1.167120875E0,1.564955711E-1,1.018363088E-1,-1.626467109E-1,2.476195674E-1
1.177141875E0,1.685123295E-1,9.560505301E-2,-9.169400483E-2,2.143467328E-1
1.187161875E0,1.799913496E-1,3.233154491E-2,-2.272398770E-2,1.842785781E-1
1.197181875E0,1.812089235E-1,-8.601534367E-2,3.613960370E-2,2.038170362E-1
1.207201875E0,1.827706099E-1,-2.329730988E-1,8.625656366E-2,3.084181502E-1
1.217222875E0,1.751185358E-1,-3.888871670E-1,1.317552626E-1,4.463845645E-1
1.227242875E0,1.568079740E-1,-5.056827664E-1,1.716294438E-1,5.565612877E-1
1.237262875E0,1.266304553E-1,-5.569146276E-1,2.123187333E-1,6.093179951E-1
1.247283875E0,8.660261333E-2,-5.438046455E-1,2.571967244E-1,6.077611868E-1
1.257303875E0,5.192327127E-2,-4.811730981E-1,3.020290136E-1,5.704779588E-1
1.267323875E0,2.100264095E-2,-3.910354674E-1,3.387406766E-1,5.177790008E-1
1.277344875E0,-1.156067848E-2,-2.936452925E-1,3.730052114E-1,4.748621851E-1
1.287364875E0,-4.248663783E-2,-2.059023976E-1,4.076737165E-1,4.586924579E-1
1.297384875E0,-7.146214694E-2,-1.501537412E-1,4.282395840E-1,4.593932147E-1
1.307404875E0,-1.005108431E-1,-1.137749553E-1,4.467312396E-1,4.718219690E-1
1.317425875E0,-1.250073314E-1,-1.066619083E-1,4.636388719E-1,4.918989725E-1
1.327445875E0,-1.484596729E-1,-1.160010770E-1,4.860685766E-1,5.213052709E-1
1.337465875E0,-1.670836061E-1,-1.386388093E-1,5.057324767E-1,5.503662316E-1
1.347486875E0,-1.719529331E-1,-1.813005209E-1,5.253860950E-1,5.817802325E-1
1.357506875E0,-1.766162217E-1,-2.519475520E-1,5.484718680E-1,6.288817446E-1
1.367526875E0,-1.594716012E-1,-3.550667465E-1,5.735237002E-1,6.931327584E-1
1.377547875E0,-1.373299509E-1,-4.706334472E-1,5.884674191E-1,7.659303235E-1
1.387567875E0,-1.188172624E-1,-6.069649458E-1,6.021744013E-1,8.632137608E-1
1.397587875E0,-1.005451009E-1,-7.791373134E-1,6.085019708E-1,9.936996120E-1
1.407607875E0,-8.447319269E-2,-9.601598382E-1,6.021910906E-1,1.136519575E0
1.417628875E0,-7.462909073E-2,-1.121238589E0,5.876920819E-1,1.268119655E0
1.427648875E0,-6.536341459E-2,-1.254154325E0,5.694544911E-1,1.378932146E0
1.437668875E0,-5.784451216E-2,-1.328623652E0,5.423693061E-1,1.436228137E0
1.447689875E0,-5.180951953E-2,-1.313191652E0,5.117881894E-1,1.410348784E0
1.457709875E0,-3.676392138E-2,-1.227267504E0,4.867056608E-1,1.320764745E0
1.467729875E0,-2.510247193E-2,-1.062850595E0,4.561746716E-1,1.156882384E0
1.477749875E0,-1.863458939E-2,-8.119130731E-1,4.261796772E-1,9.171582216E-1
1.487770875E0,-6.308681332E-3,-5.035155416E-1,4.044645131E-1,6.458786592E-1
1.497790875E0,-4.726446234E-3,-2.355899662E-1,3.943153024E-1,4.593577355E-1
1.507810875E0,4.513934255E-5,-6.368798018E-2,3.884110749E-1,3.935979217E-1
1.517831875E0,1.163327135E-3,1.343883015E-2,3.842696548E-1,3.845063368E-1
1.527851875E0,-5.200570449E-4,8.384948596E-3,3.712379932E-1,3.713330385E-1
1.537871875E0,-8.587259799E-3,-3.721003979E-2,3.524520099E-1,3.545148056E-1
1.547892875E0,-2.923554741E-2,-6.712372601E-2,3.254851103E-1,3.336178485E-1
1.557912875E0,-5.747856200E-2,-2.273262851E-2,2.938312292E-1,3.002621334E-1
1.567932875E0,-9.176915884E-2,1.276448965E-1,2.687666416E-1,3.113684405E-1
1.577952875E0,-1.424349695E-1,3.788586557E-1,2.411303520E-1,4.711320921E-1
1.587973875E0,-2.168410271E-1,6.998627782E-1,2.120552957E-1,7.627551296E-1
1.597993875E0,-3.132346869E-1,1.054826021E0,1.896133870E-1,1.116569362E0
1.608013875E0,-4.220131040E-1,1.398986816E0,1.716658175E-1,1.471301575E0
1.618034875E0,-5.618373752E-1,1.696227431E0,1.596179008E-1,1.793969512E0
1.628054875E0,-7.232300043E-1,1.930753946E0,1.466025114E-1,2.066969941E0
1.638074875E0,-8.965162635E-1,2.082067728E0,1.428693235E-1,2.271378233E0
1.648094875E0,-1.068415523E0,2.117498159E0,1.478816569E-1,2.376379424E0
1.658115875E0,-1.224188328E0,2.023358583E0,1.474054903E-1,2.369460993E0
1.668135875E0,-1.346855879E0,1.822614551E0,1.407238841E-1,2.270627175E0
1.678155875E0,-1.434303641E0,1.547256708E0,1.360561848E-1,2.114176327E0
1.688176875E0,-1.474340200E0,1.249212027E0,1.305956393E-1,1.936818250E0
1.698196875E0,-1.469693542E0,9.781706333E-1,1.279724538E-1,1.770083005E0
1.708216875E0,-1.423107386E0,7.925344706E-1,1.314404160E-1,1.634203813E0
1.718237875E0,-1.336975217E0,7.250837088E-1,1.536324471E-1,1.528676566E0
1.728257875E0,-1.219280005E0,7.443695068E-1,1.959269047E-1,1.441914368E0
1.738277875E0,-1.088920355E0,8.066924810E-1,2.411387861E-1,1.376462209E0
1.748297875E0,-9.581217766E-1,8.457333446E-1,2.790222466E-1,1.308096190E0
1.758318875E0,-8.398981690E-1,8.500397205E-1,3.086784482E-1,1.234211832E0
1.768338875E0,-7.167357206E-1,8.416038752E-1,3.357252479E-1,1.155300228E0
1.778358875E0,-5.991125107E-1,8.219471574E-1,3.782115281E-1,1.085162149E0
1.788379875E0,-4.861843586E-1,7.654052973E-1,4.178995490E-1,9.984290324E-1
1.798399875E0,-3.888301253E-1,6.649598479E-1,4.602687657E-1,8.973337185E-1
1.808419875E0,-3.125849068E-1,5.303269029E-1,5.004995465E-1,7.933824702E-1
1.818440875E0,-2.565408349E-1,3.738299906E-1,5.257566571E-1,6.942493244E-1
1.828460875E0,-2.238545269E-1,2.137960941E-1,5.349858403E-1,6.180853245E-1
1.838480875E0,-2.073306739E-1,6.871400028E-2,5.294408798E-1,5.727261714E-1
1.848500875E0,-2.173271179E-1,-4.461468384E-2,5.116179585E-1,5.576508600E-1
1.858521875E0,-2.506755292E-1,-1.330958307E-1,4.847240150E-1,5.617028501E-1
1.868541875E0,-3.040356636E-1,-1.909921467E-1,4.526017606E-1,5.777231505E-1
1.878561875E0,-3.773072660E-1,-2.495202720E-1,4.097564518E-1,6.103453850E-1
1.888582875E0,-4.747733772E-1,-3.082930446E-1,3.569984436E-1,6.692549961E-1
1.898602875E0,-5.943251252E-1,-3.552919030E-1,2.918599546E-1,7.514232655E-1
1.908622875E0,-7.182633281E-1,-3.839810789E-1,2.150802463E-1,8.423794808E-1
1.918642875E0,-8.366854191E-1,-3.824006915E-1,1.385191977E-1,9.303012133E-1
1.928663875E0,-9.509361386E-1,-3.427675366E-1,5.844699219E-2,1.012514284E0
1.938683875E0,-1.056769252E0,-2.813098133E-1,-3.238015249E-2,1.094049787E0
1.948703875E0,-1.146451712E0,-2.183428407E-1,-1.159807742E-1,1.172807172E0
1.958724875E0,-1.222032309E0,-1.696871817E-1,-2.031207681E-1,1.250365846E0
1.968744875E0,-1.272409916E0,-1.272931099E-1,-2.737797499E-1,1.307740755E0
1.978764875E0,-1.303194761E0,-7.662424445E-2,-3.386518359E-1,1.348655970E0
1.988785875E0,-1.322899699E0,4.583256319E-3,-3.793332279E-1,1.376218848E0
1.998805875E0,-1.327954531E0,1.185141578E-1,-3.985399008E-1,1.391525384E0
2.008825875E0,-1.320021152E0,2.665696740E-1,-4.023881555E-1,1.405500431E0
2.018845875E0,-1.285184383E0,4.369009733E-1,-3.795565367E-1,1.409483779E0
2.028866875E0,-1.213762999E0,6.321932673E-1,-3.274698853E-1,1.407169311E0
2.038886875E0,-1.135064840E0,8.187420964E-1,-2.565736175E-1,1.422863603E0
2.048906875E0,-1.031023145E0,9.567809105E-1,-1.750081778E-1,1.417415358E0
2.058928125E0,-9.221125245E-1,1.010683298E0,-7.972847670E-2,1.370448418E0
2.068948125E0,-8.126496673E-1,9.799326658E-1,2.644376457E-2,1.273329016E0
2.078968125E0,-6.970321536E-1,8.506159782E-1,1.387043148E-1,1.108440460E0
2.088989125E0,-5.773129463E-1,5.841241479E-1,2.504199147E-1,8.586043279E-1
2.099009125E0,-4.734774232E-1,2.044505328E-1,3.600098193E-1,6.289578369E-1
2.109029125E0,-3.773770034E-1,-2.442423105E-1,4.737584889E-1,6.530810170E-1
2.119049125E0,-2.788141966E-1,-6.904336810E-1,5.958183408E-1,9.536432872E-1
2.129070125E0,-1.680149734E-1,-1.078673482E0,7.305372357E-1,1.313563917E0
2.139090125E0,-3.994821757E-2,-1.372368217E0,8.705322146E-1,1.625674235E0
2.149110125E0,9.982220083E-2,-1.563173532E0,9.985490441E-1,1.857572652E0
2.159131125E0,2.352520227E-1,-1.651988745E0,1.108984113E0,2.003560852E0
2.169151125E0,3.556080163E-1,-1.631446958E0,1.201619744E0,2.057174335E0
2.179171125E0,4.516938329E-1,-1.510506868E0,1.280201435E0,2.030904732E0
2.189191125E0,5.340070724E-1,-1.330978990E0,1.344595671E0,1.965860153E0
2.199212125E0,5.975734591E-1,-1.146828651E0,1.394088745E0,1.901523974E0
2.209232125E0,6.458584070E-1,-9.734110832E-1,1.424817443E0,1.842489339E0
2.219252125E0,6.828678250E-1,-8.272046447E-1,1.441037655E0,1.796431327E0
2.229273125E0,7.134712934E-1,-7.231690884E-1,1.438960671E0,1.761426306E0
2.239293125E0,7.477952838E-1,-6.521763206E-1,1.424838185E0,1.736287878E0
2.249313125E0,7.713419199E-1,-5.906091332E-1,1.408231497E0,1.710819527E0
2.259334125E0,7.874987125E-1,-5.326894522E-1,1.388334274E0,1.682671784E0
2.269354125E0,7.846161127E-1,-4.688159227E-1,1.370696425E0,1.647488848E0
2.279374125E0,7.613986731E-1,-4.057961106E-1,1.347694993E0,1.600212554E0
2.289394125E0,7.318769693E-1,-3.713228405E-1,1.320873499E0,1.555066349E0
2.299415125E0,6.883819699E-1,-3.329457939E-1,1.288165569E0,1.498029763E0
2.309435125E0,6.396402717E-1,-2.634551525E-1,1.259721160E0,1.437165855E0
2.319455125E0,6.102544069E-1,-1.602234095E-1,1.246988535E0,1.397520085E0
2.329476125E0,5.858752728E-1,-2.330550924E-2,1.242281914E0,1.373702055E0
2.339496125E0,5.568122864E-1,1.308573633E-1,1.250336051E0,1.374955931E0
2.349516125E0,5.232186317E-1,3.308610320E-1,1.261172175E0,1.404913526E0
2.359537125E0,4.692389965E-1,5.602502823E-1,1.281860948E0,1.475545019E0
2.369557125E0,3.890006244E-1,7.739138007E-1,1.308743715E0,1.569418417E0
2.379577125E0,2.678069472E-1,9.369247556E-1,1.295175314E0,1.620810801E0
2.389597125E0,1.747531742E-1,1.183097124E0,1.185891509E0,1.684219745E0
2.399618125E0,6.620136648E-2,1.316028833E0,1.153572083E0,1.751297536E0
2.409638125E0,-2.379723266E-2,1.394210696E0,1.118697762E0,1.787700886E0
2.419658125E0,-8.047235757E-2,1.353195310E0,1.031934023E0,1.703672848E0
2.429679125E0,-1.868035942E-1,1.221750736E0,9.710736275E-1,1.571799744E0
2.439699125E0,-2.792877555E-1,1.040271521E0,9.153275490E-1,1.413503098E0
2.449719125E0,-3.489437997E-1,7.273470163E-1,9.022191763E-1,1.210287115E0
2.459740125E0,-3.684397340E-1,3.615845740E-1,9.003463387E-1,1.037841400E0
2.469760125E0,-3.699984848E-1,-6.456967443E-2,8.833982348E-1,9.599273738E-1
2.479780125E0,-3.718519807E-1,-4.574671388E-1,8.637204170E-1,1.045735644E0
2.489800125E0,-3.510348499E-1,-7.003863454E-1,8.217599392E-1,1.135365975E0
2.499821125E0,-3.171058595E-1,-7.074531913E-1,7.536158562E-1,1.081195173E0
2.509841125E0,-2.940881550E-1,-4.876702130E-1,7.091027498E-1,9.094706094E-1
2.519861125E0,-2.889930010E-1,-1.745805740E-1,6.814755201E-1,7.605289054E-1
2.529882125E0,-2.961867154E-1,1.172281206E-1,6.702918410E-1,7.421321680E-1
2.539902125E0,-2.931112945E-1,3.136295080E-1,6.614375114E-1,7.885285542E-1
2.549922125E0,-2.835305929E-1,4.029929340E-1,6.562984586E-1,8.206829892E-1
2.559943125E0,-2.713912129E-1,3.840793073E-1,6.557018161E-1,8.069169576E-1
2.569963125E0,-2.725102603E-1,2.755634785E-1,6.555540562E-1,7.615432970E-1
2.579983125E0,-2.875997126E-1,9.243752807E-2,6.447889209E-1,7.120470797E-1
2.590003125E0,-3.167061806E-1,-1.558295339E-1,6.200385690E-1,7.134658194E-1
2.600024125E0,-3.471430838E-1,-4.252711833E-1,5.920878053E-1,8.074229803E-1
2.610044125E0,-3.741033375E-1,-6.617881060E-1,5.679824352E-1,9.489577710E-1
2.620064125E0,-3.914546072E-1,-8.271706700E-1,5.447213650E-1,1.064973893E0
2.630085125E0,-3.985300660E-1,-8.637193441E-1,5.354248285E-1,1.091566336E0
2.640105125E0,-4.060672224E-1,-7.617722154E-1,5.428324342E-1,1.019732587E0
2.650125125E0,-4.349236190E-1,-5.689795613E-1,5.464287400E-1,9.008222153E-1
2.660146125E0,-4.376454949E-1,-2.652816772E-1,5.305404067E-1,7.371438602E-1
2.670166125E0,-4.215267003E-1,7.939635217E-2,4.945573509E-1,6.546567903E-1
2.680186125E0,-3.941465616E-1,3.300719261E-1,4.527786970E-1,6.850602433E-1
2.690206125E0,-3.697978258E-1,4.389709830E-1,4.034596086E-1,7.015879215E-1
2.700227125E0,-3.703564703E-1,3.849460483E-1,3.632807136E-1,6.460032910E-1
2.710247125E0,-4.004659057E-1,1.969841421E-1,3.337230682E-1,5.572672430E-1
2.720267125E0,-4.210030138E-1,1.203706022E-2,3.118983805E-1,5.240887599E-1
2.730288125E0,-4.189358652E-1,-6.681700796E-2,2.882977128E-1,5.129204060E-1
2.740308125E0,-3.897927403E-1,-2.360672876E-2,2.739339173E-1,4.770067600E-1
2.750328125E0,-3.500522673E-1,8.821008354E-2,2.633853853E-1,4.468662774E-1
2.760349125E0,-2.927910686E-1,2.624014318E-1,2.611114085E-1,4.719748816E-1
2.770369125E0,-2.330017835E-1,4.381828606E-1,2.645575404E-1,5.623919831E-1
2.780389125E0,-1.733010858E-1,5.425127149E-1,2.654002309E-1,6.283236385E-1
2.790409125E0,-1.144063398E-1,5.564948320E-1,2.718554437E-1,6.298259212E-1
2.800430125E0,-6.365533173E-2,5.056869388E-1,2.726950049E-1,5.780431186E-1
2.810450125E0,-2.182399668E-2,4.126781821E-1,2.806426585E-1,4.995396587E-1
2.820470125E0,1.201181486E-2,2.970597446E-1,2.838594913E-1,4.110535079E-1
2.830491125E0,5.254219472E-2,1.982000172E-1,3.016659319E-1,3.647550734E-1
2.840511125E0,8.999627829E-2,9.881374985E-2,3.259169757E-1,3.522575228E-1
2.850531125E0,1.179155335E-1,-3.920830414E-2,3.501749039E-1,3.715694113E-1
2.860552125E0,1.444567293E-1,-1.888084114E-1,3.720719516E-1,4.415358423E-1
2.870572125E0,1.551937908E-1,-3.258043528E-1,4.005219638E-1,5.391209813E-1
2.880592125E0,1.550993025E-1,-4.516930282E-1,4.172959030E-1,6.342067928E-1
2.890612125E0,1.710417867E-1,-4.847324491E-1,4.232366383E-1,6.658453964E-1
2.900633125E0,1.869357824E-1,-4.373532236E-1,4.183262885E-1,6.334190655E-1
2.910653125E0,2.067582160E-1,-3.166331947E-1,4.044304490E-1,5.536872113E-1
2.920673125E0,2.195133716E-1,-1.815096736E-1,3.866734207E-1,4.802584889E-1
2.930694125E0,2.136783898E-1,-6.043037772E-2,3.641851544E-1,4.265455562E-1
2.940714125E0,1.917118579E-1,9.468911216E-3,3.518316448E-1,4.007849835E-1
2.950734125E0,1.530211866E-1,7.561128587E-4,3.376681507E-1,3.707233945E-1
2.960755125E0,1.045048535E-1,-7.145521045E-2,3.161708415E-1,3.405746798E-1
2.970775125E0,3.375824541E-2,-2.028204352E-1,2.972956896E-1,3.614698813E-1
2.980795125E0,-5.335418880E-2,-3.717079461E-1,2.707274854E-1,4.629328655E-1
2.990815125E0,-1.330072135E-1,-4.990124106E-1,2.458668649E-1,5.719744925E-1
3.000836125E0,-2.112821043E-1,-5.125774741E-1,2.196890414E-1,5.963548184E-1
3.010856125E0,-2.940038741E-1,-3.789458871E-1,1.929234713E-1,5.169697565E-1
3.020876125E0,-3.726060390E-1,-1.696435660E-1,1.689944565E-1,4.429145811E-1
3.030897125E0,-4.704273939E-1,1.298925430E-1,1.627059281E-1,5.144387473E-1
3.040917125E0,-5.803681016E-1,5.615633726E-1,1.705205590E-1,8.253834356E-1
3.050937125E0,-6.271851659E-1,1.101621509E0,1.567421556E-1,1.277301563E0
3.060958167E0,-6.829087138E-1,1.610062838E0,1.239974573E-1,1.753294619E0
3.070978167E0,-7.214664817E-1,1.976251483E0,8.894813061E-2,2.105705482E0
3.080998167E0,-7.747961283E-1,2.169219255E0,5.142056569E-2,2.304010697E0
3.091018167E0,-8.305249214E-1,2.312221289E0,3.178747743E-2,2.457061126E0
3.101039167E0,-8.766903877E-1,2.369265795E0,2.647201717E-2,2.526402029E0
3.111059167E0,-9.304862618E-1,2.055289745E0,3.989301622E-2,2.256460076E0
3.121079167E0,-9.646382928E-1,1.528300405E0,5.316851661E-2,1.808053111E0
3.131100167E0,-9.919176102E-1,8.038883209E-1,4.845152795E-2,1.277687179E0
3.141120167E0,-9.932293892E-1,8.585603535E-2,5.968250334E-2,9.987181182E-1
3.151140167E0,-9.840086699E-1,-5.538456440E-1,7.605507970E-2,1.131725424E0
3.161161167E0,-9.667561650E-1,-1.034456253E0,1.087636799E-1,1.420051675E0
3.171181167E0,-9.386243820E-1,-1.304884315E0,1.616239697E-1,1.615506457E0
3.181201167E0,-9.057657719E-1,-1.391236067E0,2.333041728E-1,1.676418881E0
3.191221167E0,-8.815102577E-1,-1.398954391E0,3.015487492E-1,1.680793078E0
3.201242167E0,-8.582174778E-1,-1.398476958E0,3.568184078E-1,1.679164798E0
3.211262167E0,-8.235322237E-1,-1.373385429E0,3.968291879E-1,1.649807948E0
3.221282167E0,-8.043270707E-1,-1.340995431E0,4.102043211E-1,1.616625611E0
3.231303167E0,-7.856056094E-1,-1.232473969E0,4.185714126E-1,1.520319140E0
3.241323167E0,-7.757784724E-1,-1.086115360E0,4.202473760E-1,1.399316501E0
3.251343167E0,-7.766162753E-1,-9.423084259E-1,4.128632247E-1,1.289005062E0
3.261364167E0,-7.776740789E-1,-8.221020699E-1,4.127565026E-1,1.204573251E0
3.271384167E0,-7.772985697E-1,-7.077317834E-1,4.039398432E-1,1.126163727E0
3.281404167E0,-7.803313732E-1,-5.935124159E-1,3.966338336E-1,1.057588028E0
3.291424167E0,-7.816876769E-1,-4.761753976E-1,3.822338581E-1,9.919079372E-1
3.301445167E0,-7.816081643E-1,-3.443596065E-1,3.611940742E-1,9.273381370E-1
3.311465167E0,-7.884186506E-1,-1.938481480E-1,3.392048776E-1,8.799096670E-1
3.321485167E0,-7.944319248E-1,-3.438554704E-2,3.181213737E-1,8.564494482E-1
3.331506167E0,-8.101363182E-1,1.102909446E-1,2.970256805E-1,8.698903387E-1
3.341526167E0,-8.265914917E-1,2.288283110E-1,2.769111991E-1,9.012744877E-1
3.351546167E0,-8.443660140E-1,3.086733222E-1,2.621842027E-1,9.364687617E-1
3.361567167E0,-8.647003770E-1,3.382635415E-1,2.507928312E-1,9.617827247E-1
3.371587167E0,-8.826508522E-1,3.277067542E-1,2.349230647E-1,9.703881131E-1
3.381607167E0,-8.907825947E-1,2.930119038E-1,2.179057449E-1,9.627214137E-1
3.391627167E0,-8.956433535E-1,2.536493242E-1,1.999027729E-1,9.520903922E-1
3.401648167E0,-8.998957872E-1,2.144159973E-1,1.813046783E-1,9.426866044E-1
3.411668167E0,-9.041422009E-1,1.762630194E-1,1.648910791E-1,9.358049153E-1
3.421688167E0,-9.096146226E-1,1.350352019E-1,1.536866724E-1,9.323373106E-1
3.431709167E0,-9.160149693E-1,1.012005433E-1,1.445855945E-1,9.328611731E-1
3.441729167E0,-9.187186360E-1,8.647026122E-2,1.369060427E-1,9.328795757E-1
3.451749167E0,-9.195231199E-1,8.015324175E-2,1.291972548E-1,9.320081764E-1
3.461770167E0,-9.191277027E-1,9.741769731E-2,1.219829991E-1,9.322906166E-1
3.471790167E0,-9.151401520E-1,1.275593489E-1,1.118358225E-1,9.307309689E-1
3.481810167E0,-9.110651016E-1,1.560975611E-1,1.047584862E-1,9.302582482E-1
3.491831167E0,-9.082770944E-1,1.685342491E-1,8.801279217E-2,9.279640752E-1
3.501851167E0,-9.054223895E-1,1.585824788E-1,6.843880564E-2,9.217494107E-1
3.511871167E0,-8.976712823E-1,1.282890290E-1,5.257888138E-2,9.083151132E-1
3.521891167E0,-8.822941780E-1,9.221204370E-2,3.847400472E-2,8.879337400E-1
3.531912167E0,-8.663970232E-1,6.180939823E-2,2.919688076E-2,8.690895589E-1
3.541932167E0,-8.506133556E-1,5.016025528E-2,1.829318330E-2,8.522873767E-1
3.551952167E0,-8.417197466E-1,6.978987902E-2,7.527886890E-3,8.446415974E-1
3.561973167E0,-8.268073201E-1,1.143148467E-1,-5.877065472E-3,8.346932183E-1
3.571993167E0,-8.146928549E-1,1.633151472E-1,-1.807620749E-2,8.310974879E-1
3.582013167E0,-7.997805476E-1,1.927679330E-1,-4.018669575E-2,8.236645985E-1
3.592034167E0,-7.865408659E-1,2.025944591E-1,-5.630574375E-2,8.141629968E-1
3.602054167E0,-7.670107484E-1,2.082227319E-1,-7.634346187E-2,7.984300335E-1
3.612074167E0,-7.493161559E-1,2.179938704E-1,-9.121588618E-2,7.856948307E-1
3.622094167E0,-7.288147807E-1,2.479187846E-1,-1.031742245E-1,7.767107756E-1
3.632115167E0,-7.054636478E-1,2.889626324E-1,-1.133016869E-1,7.707240970E-1
3.642135167E0,-6.957730055E-1,3.124037683E-1,-1.275482923E-1,7.732818092E-1
3.652155167E0,-6.872397065E-1,2.827571929E-1,-1.418657154E-1,7.565553024E-1
3.662176167E0,-6.821619272E-1,1.858094484E-1,-1.529547125E-1,7.233707142E-1
3.672196167E0,-6.726347208E-1,5.711326748E-2,-1.687283516E-1,6.958222830E-1
3.682216167E0,-6.614067554E-1,-6.050502881E-2,-1.725172698E-1,6.862083962E-1
3.692237167E0,-6.443489194E-1,-1.144303083E-1,-1.700570434E-1,6.761650859E-1
3.702257167E0,-6.306571960E-1,-1.069434881E-1,-1.589970440E-1,6.591247747E-1
3.712277167E0,-6.115967035E-1,-3.394117951E-2,-1.495902240E-1,6.305392665E-1
3.722298167E0,-5.965430140E-1,6.149838492E-2,-1.417596340E-1,6.162316227E-1
3.732318167E0,-5.794638991E-1,1.587045640E-1,-1.319983453E-1,6.151334101E-1
3.742338167E0,-5.617890358E-1,2.229606211E-1,-1.281880587E-1,6.178596424E-1
3.752358167E0,-5.418230295E-1,2.301359773E-1,-1.235440299E-1,6.014963763E-1
3.762379167E0,-5.209876299E-1,1.961186826E-1,-1.238606125E-1,5.702912410E-1
3.772399167E0,-5.027630329E-1,1.399190575E-1,-1.280361861E-1,5.373465128E-1
3.782419167E0,-4.941327870E-1,7.888901234E-2,-1.254332215E-1,5.158722521E-1
3.792440167E0,-4.777149260E-1,2.535281330E-2,-1.282090396E-1,4.952694958E-1
3.802460167E0,-4.656677544E-1,-1.695244946E-2,-1.289351285E-1,4.834853776E-1
3.812480167E0,-4.480395019E-1,-3.278227895E-2,-1.272805035E-1,4.669201213E-1
3.822501167E0,-4.346541762E-1,-1.633316651E-2,-1.226481199E-1,4.519221023E-1
3.832521167E0,-4.170496166E-1,1.501250360E-2,-1.214931086E-1,4.346450660E-1
3.842541167E0,-3.988045156E-1,3.347852081E-2,-1.229108125E-1,4.186560890E-1
3.852561167E0,-3.852479458E-1,1.909159124E-2,-1.260213852E-1,4.057854829E-1
3.862582167E0,-3.674327135E-1,-3.988245036E-3,-1.286299974E-1,3.893178409E-1
3.872602167E0,-3.492923379E-1,-2.233209834E-2,-1.275388896E-1,3.725184939E-1
3.882622167E0,-3.283214569E-1,-2.802830189E-2,-1.213734075E-1,3.511581821E-1
3.892643167E0,-3.106338084E-1,-1.870244369E-2,-1.126776561E-1,3.309673677E-1
3.902663167E0,-2.970013916E-1,-4.054985940E-3,-1.014007032E-1,3.138604342E-1
3.912683167E0,-2.804045677E-1,4.751555156E-3,-9.485305846E-2,2.960513496E-1
3.922704167E0,-2.696706653E-1,5.715983920E-3,-8.959078789E-2,2.842207759E-1
3.932724167E0,-2.594361305E-1,6.726653781E-3,-8.544051647E-2,2.732259789E-1
3.942744167E0,-2.474302500E-1,-5.143642891E-3,-8.055769652E-2,2.602647271E-1
3.952764167E0,-2.410458475E-1,-2.308242954E-2,-8.091030270E-2,2.553083944E-1
3.962785167E0,-2.356132269E-1,-3.669676185E-2,-7.349336147E-2,2.495225825E-1
3.972805167E0,-2.265843153E-1,-4.266357422E-2,-7.464224845E-2,2.423470606E-1
3.982825167E0,-2.218969017E-1,-3.980459273E-2,-7.025597245E-2,2.361324676E-1
3.992846167E0,-2.185706198E-1,-3.128034621E-2,-6.416265666E-2,2.299313428E-1
4.002866167E0,-2.146710008E-1,-2.356047556E-2,-5.590001121E-2,2.230774436E-1
4.012886167E0,-2.153975070E-1,-1.955561526E-2,-4.956221953E-2,2.218894357E-1
4.022907167E0,-2.152850330E-1,-3.190191090E-2,-4.422407225E-2,2.220836462E-1
4.032927167E0,-2.115100026E-1,-6.916193664E-2,-4.037607089E-2,2.261638384E-1
4.042947167E0,-2.085872293E-1,-1.408325732E-1,-4.488123581E-2,2.556497041E-1
4.052967167E0,-2.073680311E-1,-2.111626714E-1,-4.600349069E-2,2.995120954E-1
4.062988375E0,-1.989630461E-1,-2.592254281E-1,-5.209828541E-2,3.309053454E-1
4.073008375E0,-1.935895830E-1,-2.897761762E-1,-5.686268210E-2,3.531012937E-1
4.083028375E0,-1.885465831E-1,-2.934507728E-1,-5.868083239E-2,3.537041279E-1
4.093049375E0,-1.782745123E-1,-2.766230404E-1,-6.544525921E-2,3.355371666E-1
4.103069375E0,-1.656494290E-1,-2.258919328E-1,-6.632542610E-2,2.878644834E-1
4.113089375E0,-1.478856057E-1,-1.557914019E-1,-6.969432533E-2,2.258282804E-1
4.123110375E0,-1.301899701E-1,-7.071859390E-2,-6.370940059E-2,1.612744108E-1
4.133130375E0,-1.079520509E-1,1.081195287E-2,-6.473098695E-2,1.263354435E-1
4.143150375E0,-8.289793134E-2,8.241508901E-2,-6.326031685E-2,1.329141889E-1
4.153171375E0,-5.472568423E-2,1.383944601E-1,-7.351402193E-2,1.659886698E-1
4.163191375E0,-2.833937109E-2,1.630118340E-1,-8.195369691E-2,1.846412371E-1
4.173211375E0,-6.088130176E-3,1.589747518E-1,-8.658999205E-2,1.811294117E-1
4.183231375E0,1.567810960E-2,1.311804801E-1,-9.092392772E-2,1.603785588E-1
4.193252375E0,3.917331249E-2,9.638654441E-2,-8.865384758E-2,1.366909618E-1
4.203272375E0,5.345484614E-2,5.488572270E-2,-8.453870565E-2,1.140905600E-1
4.213292375E0,6.543827057E-2,-7.747297175E-3,-7.938735187E-2,1.031723776E-1
4.223313375E0,7.376401871E-2,-8.128528297E-2,-7.423903048E-2,1.325136270E-1
4.233333375E0,7.455658168E-2,-1.485215873E-1,-7.070129365E-2,1.805990550E-1
4.243353375E0,7.210201025E-2,-1.926330924E-1,-7.287178189E-2,2.182120638E-1
4.253374375E0,6.777943671E-2,-2.120445967E-1,-7.252823561E-2,2.341309633E-1
4.263394375E0,6.298537552E-2,-2.077776343E-1,-8.074241877E-2,2.316420536E-1
4.273414375E0,5.812244117E-2,-1.856390536E-1,-8.610761911E-2,2.127312823E-1
4.283435375E0,5.149837211E-2,-1.433736980E-1,-9.387801588E-2,1.789446324E-1
4.293455375E0,4.851190373E-2,-7.645351440E-2,-1.030366272E-1,1.371681129E-1
4.303475375E0,4.241847992E-2,1.109262556E-2,-1.047004834E-1,1.135101978E-1
4.313495375E0,4.211541265E-2,1.204217821E-1,-1.056136787E-1,1.656181232E-1
4.323516375E0,3.925564140E-2,2.337011844E-1,-1.016578451E-1,2.578595867E-1
4.333536375E0,3.653149679E-2,3.328461349E-1,-9.788414836E-2,3.488587197E-1
4.343556375E0,2.725708857E-2,4.021328986E-1,-9.177155048E-2,4.133713034E-1
4.353577375E0,1.862365194E-2,4.193752706E-1,-8.685082197E-2,4.286788113E-1
4.363597375E0,1.056941971E-2,3.830913603E-1,-7.852279395E-2,3.911988397E-1
4.373617375E0,1.430782489E-3,3.183581829E-1,-7.489343733E-2,3.270519939E-1
4.383638375E0,-6.085422821E-3,2.345967293E-1,-6.265410036E-2,2.428954385E-1
4.393658375E0,-1.001518406E-2,1.398523748E-1,-6.247593090E-2,1.534999433E-1
4.403678375E0,-7.866789587E-3,4.414805025E-2,-5.957061052E-2,7.456268743E-2
4.413698375E0,-6.706184708E-3,-3.597767651E-2,-6.306440383E-2,7.291423147E-2
4.423719375E0,2.583321184E-4,-9.163256735E-2,-6.251537800E-2,1.109268526E-1
4.433739375E0,7.787354756E-3,-1.399734765E-1,-6.859670579E-2,1.560728198E-1
4.443759375E0,1.156480610E-2,-1.705669612E-1,-6.623573601E-2,1.833412275E-1
4.453780375E0,2.437567525E-2,-1.671445370E-1,-7.010264695E-2,1.828820683E-1
4.463800375E0,4.034084827E-2,-1.457525939E-1,-6.802420318E-2,1.658267013E-1
4.473820375E0,5.253119767E-2,-1.176114976E-1,-7.230416685E-2,1.477155498E-1
4.483841375E0,6.900310516E-2,-8.742741495E-2,-7.107368857E-2,1.321228618E-1
4.493861375E0,7.849194854E-2,-5.906341970E-2,-7.036209106E-2,1.208316903E-1
4.503881375E0,8.031622320E-2,-3.631344810E-2,-7.134409994E-2,1.133990424E-1
4.513902375E0,8.079799265E-2,-3.488679230E-2,-7.656709105E-2,1.166530039E-1
4.523922375E0,8.184552193E-2,-5.285173655E-2,-8.552337438E-2,1.296388949E-1
4.533942375E0,7.535273582E-2,-7.488139719E-2,-8.980493993E-2,1.391049448E-1
4.543962375E0,7.896536589E-2,-9.156422317E-2,-9.198652953E-2,1.519245128E-1
4.553983375E0,8.016245812E-2,-1.067223996E-1,-9.575117379E-2,1.642680053E-1
4.564003375E0,7.756174356E-2,-1.069726050E-1,-9.452017397E-2,1.624593043E-1
4.574023375E0,7.635719329E-2,-9.158299863E-2,-9.043062478E-2,1.496514768E-1
4.584044375E0,7.383929193E-2,-7.603374124E-2,-8.853218704E-2,1.380989463E-1
4.594064375E0,6.811536103E-2,-5.209298804E-2,-9.176553041E-2,1.255957578E-1
4.604084375E0,6.199282408E-2,-2.552482300E-2,-9.126652032E-2,1.132440045E-1
4.614105375E0,5.416659266E-2,-5.233666394E-3,-9.269770235E-2,1.074908138E-1
4.624125375E0,4.327201843E-2,1.970271394E-2,-9.228292108E-2,1.038113772E-1
4.634145375E0,3.734355420E-2,4.828269407E-2,-9.315457195E-2,1.113711536E-1
4.644165375E0,2.965635061E-2,8.647447079E-2,-9.192401916E-2,1.296431970E-1
4.654186375E0,2.535294741E-2,1.286133975E-1,-9.373496473E-2,1.611534100E-1
4.664206375E0,1.538909227E-2,1.826223284E-1,-9.633468837E-2,2.070461571E-1
4.674226375E0,4.249623045E-3,2.302673459E-1,-1.003797650E-1,2.512313816E-1
4.684247375E0,-8.942623623E-3,2.814725637E-1,-1.094107181E-1,3.021216310E-1
4.694267375E0,-2.081685886E-2,3.365392685E-1,-1.214689761E-1,3.583946610E-1
4.704287375E0,-3.502198309E-2,3.823660314E-1,-1.338232160E-1,4.066189548E-1
4.714308375E0,-4.207856208E-2,4.114491045E-1,-1.440460235E-1,4.379614457E-1
4.724328375E0,-4.669847339E-2,4.320805669E-1,-1.552305967E-1,4.614877050E-1
4.734348375E0,-4.835975170E-2,4.496081471E-1,-1.675367951E-1,4.822392863E-1
4.744369375E0,-4.761890322E-2,4.538623691E-1,-1.759051383E-1,4.890820255E-1
4.754389375E0,-4.183797911E-2,4.525464773E-1,-1.777555048E-1,4.880017932E-1
4.764409375E0,-3.954267129E-2,4.467914701E-1,-1.816535145E-1,4.839258620E-1
4.774429375E0,-3.491809219E-2,4.276649058E-1,-1.815845370E-1,4.659286307E-1
4.784450375E0,-3.532114625E-2,3.952362537E-1,-1.844113469E-1,4.375692225E-1
4.794470375E0,-3.344974294E-2,3.531742990E-1,-1.824286282E-1,3.989124906E-1
4.804490375E0,-2.744599059E-2,2.935086489E-1,-1.799424887E-1,3.453692352E-1
4.814511375E0,-2.138623223E-2,2.390049100E-1,-1.806586236E-1,3.003635401E-1
4.824531375E0,-1.390896272E-2,1.856763214E-1,-1.724127680E-1,2.537623261E-1
4.834551375E0,-1.536278147E-2,1.274252683E-1,-1.681876630E-1,2.115663112E-1
4.844572375E0,-1.277278084E-2,5.793242529E-2,-1.615253091E-1,1.720747957E-1
4.854592375E0,-1.491263043E-2,-1.071161870E-2,-1.556961834E-1,1.567750837E-1
4.864612375E0,-2.109621465E-2,-7.659298182E-2,-1.482988149E-1,1.682381456E-1
4.874633375E0,-3.277976811E-2,-1.265163422E-1,-1.437088549E-1,1.942501815E-1
4.884653375E0,-4.629393667E-2,-1.534513533E-1,-1.345660090E-1,2.092808094E-1
4.894673375E0,-5.652500317E-2,-1.522739679E-1,-1.281893402E-1,2.069177233E-1
4.904693375E0,-6.906149536E-2,-1.294749826E-1,-1.200827584E-1,1.896131064E-1
4.914714375E0,-8.009070903E-2,-8.635147661E-2,-1.132208556E-1,1.633709317E-1
4.924734375E0,-9.664651752E-2,-3.651246056E-2,-1.055574715E-1,1.477027045E-1
4.934754375E0,-1.136992574E-1,1.379358768E-2,-1.010309011E-1,1.527253324E-1
4.944775375E0,-1.233166605E-1,6.264122576E-2,-9.443458915E-2,1.674778002E-1
4.954795375E0,-1.348883659E-1,1.102076769E-1,-8.534202725E-2,1.939687215E-1
4.964815375E0,-1.475112438E-1,1.461889297E-1,-8.229371160E-2,2.233898502E-1
4.974836375E0,-1.559803635E-1,1.721464992E-1,-7.477428019E-2,2.440399228E-1
4.984856375E0,-1.645034254E-1,1.922971606E-1,-6.683823466E-2,2.617382749E-1
4.994876375E0,-1.747339517E-1,2.020429969E-1,-5.808575451E-2,2.733629114E-1
5.004896375E0,-1.861118972E-1,1.998486966E-1,-5.372949690E-2,2.783235503E-1
5.014917375E0,-1.973064989E-1,1.773801297E-1,-4.362652823E-2,2.688807150E-1
5.024937375E0,-2.088471949E-1,1.402657479E-1,-4.007444158E-2,2.547500574E-1
5.034957375E0,-2.249081880E-1,8.131880313E-2,-3.427913785E-2,2.416019455E-1
5.044978375E0,-2.400395423E-1,1.443032990E-3,-2.916087024E-2,2.418086445E-1
5.054998375E0,-2.535332143E-1,-7.503416389E-2,-2.719865367E-2,2.657987646E-1
5.065018625E0,-2.595975399E-1,-1.251995265E-1,-2.406112663E-2,2.892140072E-1
5.075039625E0,-2.647805810E-1,-1.423934251E-1,-2.166108601E-2,3.014197177E-1
5.085059625E0,-2.692934573E-1,-1.382080317E-1,-2.136259526E-2,3.034415704E-1
5.095079625E0,-2.718929648E-1,-1.171490923E-1,-1.742244698E-2,2.965691080E-1
5.105100625E0,-2.752357125E-1,-8.784951270E-2,-1.550844591E-2,2.893315507E-1
5.115120625E0,-2.703576088E-1,-5.337223038E-2,-1.160425227E-2,2.758196699E-1
5.125140625E0,-2.664929628E-1,-1.617856696E-2,-8.311565965E-3,2.671129488E-1
5.135161625E0,-2.651613951E-1,2.238533832E-2,-4.147447646E-3,2.661369387E-1
5.145181625E0,-2.572548389E-1,4.524942487E-2,1.509722089E-3,2.612084261E-1
5.155201625E0,-2.559746802E-1,4.807850346E-2,6.724457722E-3,2.605375169E-1
5.165221625E0,-2.581087351E-1,4.538965598E-2,9.116889909E-3,2.622278736E-1
5.175242625E0,-2.592570782E-1,1.809012704E-2,1.794659905E-2,2.605063640E-1
5.185262625E0,-2.648156881E-1,-5.120631307E-2,1.879465580E-2,2.703750622E-1
5.195282625E0,-2.698932588E-1,-1.341704428E-1,2.283653617E-2,3.022674085E-1
5.205303625E0,-2.749616206E-1,-2.131082565E-1,3.115295246E-2,3.492699933E-1
5.215323625E0,-2.854038775E-1,-2.727055252E-1,4.275741056E-2,3.970539924E-1
5.225343625E0,-2.939178348E-1,-3.140403032E-1,5.598732084E-2,4.337552141E-1
5.235364625E0,-3.016647100E-1,-3.308714926E-1,6.835131347E-2,4.529342601E-1
5.245384625E0,-3.125412464E-1,-3.195911944E-1,8.263190836E-2,4.545861794E-1
5.255404625E0,-3.275454938E-1,-2.901310325E-1,9.529124200E-2,4.478197041E-1
5.265425625E0,-3.479380906E-1,-2.505883276E-1,1.067743450E-1,4.418780212E-1
5.275445625E0,-3.683344424E-1,-1.921687126E-1,1.152967215E-1,4.311524203E-1
5.285465625E0,-3.812597990E-1,-1.349520981E-1,1.197710484E-1,4.218011465E-1
5.295485625E0,-3.860700130E-1,-6.186697260E-2,1.268233657E-1,4.110495631E-1
5.305506625E0,-3.901054561E-1,1.923428476E-2,1.307784170E-1,4.118922419E-1
5.315526625E0,-3.867411017E-1,1.031145379E-1,1.318788379E-1,4.214182193E-1
5.325546625E0,-3.788356781E-1,1.794831902E-1,1.308725774E-1,4.391563709E-1
5.335567625E0,-3.670352101E-1,2.451013476E-1,1.267502755E-1,4.591896649E-1
5.345587625E0,-3.565040231E-1,2.984868884E-1,1.249239668E-1,4.814514913E-1
5.355607625E0,-3.473523259E-1,3.401512504E-1,1.252600551E-1,5.020424214E-1
5.365628625E0,-3.344188035E-1,3.549693823E-1,1.271730363E-1,5.039962099E-1
5.375648625E0,-3.205730021E-1,3.459708393E-1,1.291067600E-1,4.890106612E-1
5.385668625E0,-3.086200058E-1,3.159172535E-1,1.371520460E-1,4.624507571E-1
5.395688625E0,-2.952762544E-1,2.726424634E-1,1.441950351E-1,4.269826547E-1
5.405709625E0,-2.824449539E-1,2.145284563E-1,1.469747424E-1,3.839260156E-1
5.415729625E0,-2.694655061E-1,1.390126497E-1,1.511939913E-1,3.388152870E-1
5.425749625E0,-2.596890628E-1,5.521112680E-2,1.543628126E-1,3.071067499E-1
5.435770625E0,-2.457404882E-1,-3.247132152E-2,1.523249596E-1,2.909392850E-1
5.445790625E0,-2.443449646E-1,-1.081795692E-1,1.550592631E-1,3.089508958E-1
5.455810625E0,-2.386287600E-1,-1.721646637E-1,1.547804326E-1,3.324775764E-1
5.465831625E0,-2.333235741E-1,-2.180852443E-1,1.566175669E-1,3.557107340E-1
5.475851625E0,-2.342665941E-1,-2.412907034E-1,1.584250480E-1,3.717533275E-1
5.485871625E0,-2.334785759E-1,-2.468291819E-1,1.637413353E-1,3.771579448E-1
5.495892625E0,-2.324037254E-1,-2.354649454E-1,1.632364094E-1,3.689191747E-1
5.505912625E0,-2.362044156E-1,-2.162876427E-1,1.567025036E-1,3.565509009E-1
5.515932625E0,-2.411123514E-1,-1.868746281E-1,1.537168324E-1,3.415935555E-1
5.525952625E0,-2.503663301E-1,-1.540844440E-1,1.467023343E-1,3.285527204E-1
5.535973625E0,-2.603009641E-1,-1.131484732E-1,1.419991851E-1,3.173687721E-1
5.545993625E0,-2.662486136E-1,-6.320320070E-2,1.383914948E-1,3.066515525E-1
5.556013625E0,-2.736918628E-1,-1.083772723E-2,1.352050304E-1,3.054588227E-1
5.566034625E0,-2.825475335E-1,2.622038871E-2,1.288968027E-1,3.116648893E-1
5.576054625E0,-2.920211852E-1,4.016470164E-2,1.208852008E-1,3.185950527E-1
5.586074625E0,-2.980871201E-1,4.891707376E-2,1.103882343E-1,3.216121476E-1
5.596095625E0,-3.007321656E-1,6.393331289E-2,1.028259248E-1,3.241920337E-1
5.606115625E0,-3.053097427E-1,8.775337785E-2,9.364138544E-2,3.311848477E-1
5.616135625E0,-3.049318194E-1,1.199107841E-1,8.765566349E-2,3.391836169E-1
5.626156625E0,-2.995913327E-1,1.652658582E-1,7.499244809E-2,3.502736612E-1
5.636176625E0,-2.901427150E-1,2.159218490E-1,6.898248941E-2,3.681896574E-1
5.646196625E0,-2.779645026E-1,2.383968234E-1,5.130080134E-2,3.697689580E-1
5.656217625E0,-2.742067873E-1,2.756320834E-1,4.918785021E-2,3.918952057E-1
5.666237625E0,-2.762958705E-1,2.992810011E-1,4.491084069E-2,4.097871512E-1
5.676257625E0,-2.793355882E-1,2.837675512E-1,3.685291484E-2,3.998881485E-1
5.686277625E0,-2.836996913E-1,2.416978031E-1,2.819439396E-2,3.737623132E-1
5.696298625E0,-2.952639163E-1,1.849873811E-1,2.699277550E-2,3.494706301E-1
5.706318625E0,-3.006022871E-1,1.258637607E-1,2.107720450E-2,3.265695482E-1
5.716338625E0,-3.089976311E-1,5.303935334E-2,2.509751357E-2,3.145196245E-1
5.726359625E0,-3.170144558E-1,-2.123405039E-2,2.271191403E-2,3.185355257E-1
5.736379625E0,-3.188989162E-1,-8.439810574E-2,1.471257769E-2,3.302060250E-1
5.746399625E0,-3.126832545E-1,-1.178236604E-1,6.312748417E-3,3.342051516E-1
5.756420625E0,-2.984577119E-1,-1.305328012E-1,1.610671286E-3,3.257582113E-1
5.766440625E0,-2.839401066E-1,-1.181329787E-1,-8.287600242E-3,3.076460127E-1
5.776460625E0,-2.670926750E-1,-9.454083443E-2,-1.243573986E-2,2.836037976E-1
5.786481625E0,-2.511076927E-1,-6.057206914E-2,-1.486042328E-2,2.587370887E-1
5.796501625E0,-2.255666554E-1,-1.781928167E-2,-2.254018188E-2,2.273893195E-1
5.806521625E0,-2.104447484E-1,1.817713864E-2,-2.848860063E-2,2.131408006E-1
5.816541625E0,-1.930572391E-1,3.817667812E-2,-3.301171213E-2,1.995453067E-1
5.826562625E0,-1.774375290E-1,4.627952725E-2,-3.503607213E-2,1.866906470E-1
5.836582625E0,-1.681534946E-1,4.434873536E-2,-3.613462672E-2,1.776179026E-1
5.846602625E0,-1.588201821E-1,3.535444289E-2,-3.975359723E-2,1.674936875E-1
5.856623625E0,-1.473763138E-1,3.297970071E-2,-3.913467750E-2,1.560094917E-1
5.866643625E0,-1.430064142E-1,2.874089777E-2,-4.082030058E-2,1.514700321E-1
5.876663625E0,-1.294567734E-1,2.728574537E-2,-4.243257642E-2,1.389391652E-1
5.886684625E0,-1.206452027E-1,2.612273209E-2,-4.669899493E-2,1.319790066E-1
5.896704625E0,-1.112178862E-1,2.930121496E-2,-5.066044629E-2,1.256760129E-1
5.906724625E0,-1.061268225E-1,4.376915470E-2,-6.052285060E-2,1.297754091E-1
5.916745625E0,-9.815198928E-2,6.801430881E-2,-6.088130921E-2,1.340384013E-1
5.926765625E0,-9.686163813E-2,9.449191391E-2,-6.610413641E-2,1.506009814E-1
5.936785625E0,-8.709982038E-2,1.205783784E-1,-6.803280115E-2,1.635664577E-1
5.946805625E0,-8.571929485E-2,1.359526962E-1,-6.767467409E-2,1.743869107E-1
5.956826625E0,-8.050908893E-2,1.470141411E-1,-7.005900145E-2,1.816676492E-1
5.966846625E0,-7.729407400E-2,1.484345049E-1,-7.464031875E-2,1.832439721E-1
5.976866625E0,-7.655904442E-2,1.484693885E-1,-7.645313442E-2,1.837104471E-1
5.986887625E0,-7.623660564E-2,1.527502984E-1,-7.967225462E-2,1.883941131E-1
5.996907625E0,-7.709867507E-2,1.562638134E-1,-8.847400546E-2,1.954232195E-1
6.006927625E0,-8.453291655E-2,1.540975124E-1,-9.308268130E-2,1.988875131E-1
6.016948625E0,-9.511019289E-2,1.517941356E-1,-1.026783213E-1,2.064709327E-1
6.026968625E0,-1.084294841E-1,1.462570578E-1,-1.122125164E-1,2.138684848E-1
6.036988625E0,-1.267757267E-1,1.314514875E-1,-1.203601882E-1,2.187193484E-1
6.047009625E0,-1.456179172E-1,1.037648916E-1,-1.329437345E-1,2.228133010E-1
6.057029625E0,-1.664829850E-1,8.657605201E-2,-1.455759108E-1,2.374959850E-1
6.067048875E0,-1.792121381E-1,9.356727451E-2,-1.545127928E-1,2.544524090E-1
6.077068875E0,-1.884410679E-1,1.319311708E-1,-1.624974906E-1,2.816403813E-1
6.087089875E0,-1.928427517E-1,2.031950653E-1,-1.762054861E-1,3.309455163E-1
6.097109875E0,-1.917982548E-1,2.972613573E-1,-1.825619191E-1,3.980951386E-1
6.107129875E0,-1.889081746E-1,3.864067197E-1,-1.806771606E-1,4.665197615E-1
6.117150875E0,-1.777402014E-1,4.448308647E-1,-1.878722161E-1,5.145503347E-1
6.127170875E0,-1.650172770E-1,4.493005872E-1,-1.871908307E-1,5.139475911E-1
6.137190875E0,-1.493605524E-1,4.061115980E-1,-1.870776415E-1,4.714162159E-1
6.147211875E0,-1.329701394E-1,3.387086689E-1,-1.867262870E-1,4.089881742E-1
6.157231875E0,-1.198631227E-1,2.401546538E-1,-1.843275726E-1,3.256041768E-1
6.167251875E0,-1.066978052E-1,1.354759037E-1,-1.842104346E-1,2.523323727E-1
6.177272875E0,-1.035033390E-1,3.247708827E-2,-1.833656728E-1,2.130508681E-1
6.187292875E0,-1.003063545E-1,-6.025334075E-2,-1.847352982E-1,2.186754678E-1
6.197312875E0,-1.019716337E-1,-1.354351789E-1,-1.832636297E-1,2.496526782E-1
6.207333875E0,-1.100371853E-1,-1.988822967E-1,-1.794462502E-1,2.895916207E-1
6.217353875E0,-1.235415414E-1,-2.626471519E-1,-1.791988313E-1,3.411132657E-1
6.227373875E0,-1.308966726E-1,-3.318636119E-1,-1.744108349E-1,3.970976393E-1
6.237393875E0,-1.395303756E-1,-3.917764723E-1,-1.692248583E-1,4.489928537E-1
6.247414875E0,-1.451124251E-1,-4.366228878E-1,-1.689735651E-1,4.901522496E-1
6.257434875E0,-1.559216678E-1,-4.657107294E-1,-1.660946906E-1,5.184452682E-1
6.267454875E0,-1.635644436E-1,-4.659198821E-1,-1.594033390E-1,5.188873560E-1
6.277475875E0,-1.733491719E-1,-4.374642670E-1,-1.580429971E-1,4.963894733E-1
6.287495875E0,-1.840324998E-1,-3.855948150E-1,-1.565871239E-1,4.550503815E-1
6.297515875E0,-1.916499436E-1,-3.135568202E-1,-1.537319422E-1,3.983479514E-1
6.307536875E0,-2.015678287E-1,-2.303839177E-1,-1.438758522E-1,3.382404469E-1
6.317556875E0,-2.110358924E-1,-1.455592960E-1,-1.354818344E-1,2.899637632E-1
6.327576875E0,-2.174429446E-1,-5.835250020E-2,-1.204571128E-1,2.553357877E-1
6.337597875E0,-2.256755829E-1,2.105523832E-2,-1.137901619E-1,2.536158369E-1
6.347617875E0,-2.335491776E-1,9.853184223E-2,-1.022933498E-1,2.733453342E-1
6.357637875E0,-2.341960669E-1,1.689487398E-1,-9.319146723E-2,3.034404785E-1
6.367657875E0,-2.356506288E-1,2.187579572E-1,-9.035481513E-2,3.339914001E-1
6.377678875E0,-2.415852249E-1,2.518131137E-1,-8.518294990E-2,3.592066258E-1
6.387698875E0,-2.450422645E-1,2.626031935E-1,-8.220926672E-2,3.684623619E-1
6.397718875E0,-2.511147559E-1,2.479910403E-1,-7.796380669E-2,3.614367605E-1
6.407739875E0,-2.601128221E-1,2.072646320E-1,-7.370623946E-2,3.406610010E-1
6.417759875E0,-2.738771141E-1,1.499193162E-1,-6.999885291E-2,3.199754903E-1
6.427779875E0,-2.800834179E-1,8.938956261E-2,-6.952225417E-2,3.021101764E-1
6.437800875E0,-2.820818424E-1,4.732013866E-2,-6.526732445E-2,2.933755017E-1
6.447820875E0,-2.848015428E-1,4.629197530E-3,-6.091325730E-2,2.912795447E-1
6.457840875E0,-2.892530262E-1,-4.615808278E-2,-5.635871738E-2,2.982854117E-1
6.467861875E0,-2.919479012E-1,-1.054935008E-1,-4.991833866E-2,3.144110308E-1
6.477881875E0,-2.911716104E-1,-1.680924296E-1,-4.744372889E-2,3.395392157E-1
6.487901875E0,-2.872990370E-1,-2.265464067E-1,-4.128700867E-2,3.681964532E-1
6.497921875E0,-2.801117003E-1,-2.643009722E-1,-3.365572169E-2,3.865879928E-1
6.507942875E0,-2.705920339E-1,-2.908610702E-1,-2.648499608E-2,3.981477941E-1
6.517962875E0,-2.603287697E-1,-3.148353696E-1,-1.933893748E-2,4.089821179E-1
6.527982875E0,-2.538155317E-1,-3.247968554E-1,-1.082394086E-2,4.123499474E-1
6.538003875E0,-2.477179617E-1,-3.330707550E-1,-1.768394490E-3,4.150944996E-1
6.548023875E0,-2.583743930E-1,-3.739140928E-1,7.759839296E-3,4.545649468E-1
6.558043875E0,-2.531300783E-1,-4.079378247E-1,1.179452892E-2,4.802366253E-1
6.568064875E0,-2.566412985E-1,-4.404490292E-1,1.532759052E-2,5.099951357E-1
6.578084875E0,-2.652976215E-1,-4.579880834E-1,2.644495480E-2,5.299389098E-1
6.588104875E0,-2.716363966E-1,-4.896762073E-1,3.547073528E-2,5.610947273E-1
6.598125875E0,-2.720310688E-1,-5.121378303E-1,4.780356586E-2,5.818687485E-1
6.608145875E0,-2.778953016E-1,-5.208389163E-1,6.179077923E-2,5.935630344E-1
6.618165875E0,-2.814759016E-1,-5.268691182E-1,7.210786641E-2,6.016803930E-1
6.628186875E0,-2.898826897E-1,-5.100890398E-1,8.838354796E-2,5.933249143E-1
6.638206875E0,-2.972945273E-1,-4.713847637E-1,1.013643295E-1,5.664471367E-1
6.648226875E0,-3.039271832E-1,-4.032798707E-1,1.118967086E-1,5.172303744E-1
6.658246875E0,-3.139044642E-1,-3.193442225E-1,1.268881857E-1,4.654216978E-1
6.668267875E0,-3.205193281E-1,-2.357730269E-1,1.210810095E-1,4.159112535E-1
6.678287875E0,-3.400000930E-1,-1.882201582E-1,1.329698861E-1,4.107406503E-1
6.688307875E0,-3.496197462E-1,-9.752088785E-2,1.425948441E-1,3.899712554E-1
6.698328875E0,-3.607341945E-1,-5.915076938E-3,1.422227919E-1,3.878033906E-1
6.708348875E0,-3.678632081E-1,1.104643494E-1,1.435675174E-1,4.100455394E-1
6.718368875E0,-3.752193749E-1,2.152021974E-1,1.465526521E-1,4.567047678E-1
6.728389875E0,-3.855963945E-1,2.902351618E-1,1.392851472E-1,5.023160169E-1
6.738409875E0,-4.034057558E-1,3.284997344E-1,1.316168457E-1,5.366295495E-1
6.748429875E0,-4.224608541E-1,3.536817133E-1,1.250851452E-1,5.649869212E-1
6.758450875E0,-4.369718730E-1,3.711355627E-1,1.207069084E-1,5.858806887E-1
6.768470875E0,-4.460602105E-1,3.817575574E-1,1.144236401E-1,5.981649550E-1
6.778490875E0,-4.553820789E-1,3.898783326E-1,1.044234708E-1,6.085081867E-1
6.788510875E0,-4.584931731E-1,3.879444301E-1,9.823781997E-2,6.085782940E-1
6.798531875E0,-4.568057656E-1,3.866408169E-1,8.395449072E-2,6.043268862E-1
6.808551875E0,-4.501875043E-1,3.953758478E-1,7.043724507E-2,6.032845560E-1
6.818571875E0,-4.437490404E-1,3.919382393E-1,5.781571940E-2,5.948709538E-1
6.828592875E0,-4.355076253E-1,3.730236590E-1,4.379178211E-2,5.750923944E-1
6.838612875E0,-4.227734506E-1,3.352680504E-1,2.641944960E-2,5.402222168E-1
6.848632875E0,-4.164164364E-1,2.994236052E-1,1.803455502E-2,5.132079394E-1
6.858653875E0,-4.026356339E-1,2.770503759E-1,1.252793521E-2,4.889062422E-1
6.868673875E0,-3.850925863E-1,2.703354955E-1,8.882385679E-3,4.705916243E-1
6.878693875E0,-3.681639433E-1,2.619316280E-1,6.136133801E-3,4.518744505E-1
6.888714875E0,-3.488202393E-1,2.363763005E-1,4.691787763E-5,4.213660131E-1
6.898734875E0,-3.273897767E-1,2.018862367E-1,-4.710819107E-3,3.846612929E-1
6.908754875E0,-3.125846684E-1,1.646646112E-1,-1.104380656E-2,3.534764133E-1
6.918775875E0,-2.975950539E-1,1.243243665E-1,-1.206353121E-2,3.227458644E-1
6.928795875E0,-2.854907513E-1,7.365230471E-2,-1.670736447E-2,2.953113054E-1
6.938815875E0,-2.712244689E-1,2.192466334E-2,-1.762056351E-2,2.726790928E-1
6.948835875E0,-2.628968656E-1,-2.423400059E-2,-1.836753264E-2,2.646496079E-1
6.958856875E0,-2.551545203E-1,-5.288775265E-2,-1.617734879E-2,2.610797775E-1
6.968876875E0,-2.393801808E-1,-6.826637685E-2,-1.727050543E-2,2.495224229E-1
6.978896875E0,-2.271836996E-1,-6.832736731E-2,-1.701564156E-2,2.378457369E-1
6.988917875E0,-2.177486569E-1,-7.452373952E-2,-1.731071994E-2,2.307984539E-1
6.998937875E0,-2.094555795E-1,-7.595065981E-2,-1.769288257E-2,2.235020819E-1
7.008957875E0,-2.056228518E-1,-9.071987867E-2,-1.382717956E-2,2.251711449E-1
7.018978875E0,-2.043946087E-1,-1.239603981E-1,-1.389748696E-2,2.394503634E-1
7.028998875E0,-2.030847073E-1,-1.501057446E-1,-1.236244943E-2,2.528397972E-1
7.039018875E0,-2.044509202E-1,-1.683827490E-1,-1.114165597E-2,2.650982185E-1
7.049039875E0,-2.025699764E-1,-1.760077477E-1,-6.980584934E-3,2.684437579E-1
7.059060375E0,-1.980564445E-1,-1.727597564E-1,-1.059263013E-2,2.630294517E-1
7.069080375E0,-1.965585798E-1,-1.676982045E-1,-1.503966004E-2,2.588129720E-1
7.079101375E0,-1.976552606E-1,-1.812968403E-1,-2.882684395E-2,2.697538383E-1
7.089121375E0,-1.969861835E-1,-1.954136938E-1,-3.822002187E-2,2.800907679E-1
7.099141375E0,-2.051309198E-1,-1.999085695E-1,-3.480371833E-2,2.885367034E-1
7.109161375E0,-2.034183443E-1,-1.827056557E-1,-3.574787080E-2,2.757504119E-1
7.119182375E0,-1.971266270E-1,-1.556117088E-1,-3.732872382E-2,2.539042036E-1
7.129202375E0,-1.970325857E-1,-1.468794793E-1,-4.629927501E-2,2.500780761E-1
7.139222375E0,-1.973606795E-1,-1.316475272E-1,-4.399670660E-2,2.412841052E-1
7.149243375E0,-1.970116794E-1,-1.069584638E-1,-5.321501940E-2,2.304030232E-1
7.159263375E0,-1.940387934E-1,-6.634631753E-2,-5.531598628E-2,2.123976119E-1
7.169283375E0,-1.960083395E-1,-2.141375327E-3,-5.918537825E-2,2.047602590E-1
7.179304375E0,-1.923534125E-1,7.917025685E-2,-6.073400751E-2,2.166942190E-1
7.189324375E0,-1.927256882E-1,1.707324982E-1,-6.140451133E-2,2.646947125E-1
7.199344375E0,-1.908936948E-1,2.668412030E-1,-6.112647802E-2,3.337380359E-1
7.209365375E0,-1.937689334E-1,3.505900502E-1,-5.814539641E-2,4.047723681E-1
7.219385375E0,-1.888346374E-1,4.151636958E-1,-6.191616133E-2,4.602749457E-1
7.229405375E0,-1.875466853E-1,4.561564028E-1,-5.830417946E-2,4.966405142E-1
7.239426375E0,-1.836691201E-1,4.667318165E-1,-6.096361205E-2,5.052618096E-1
7.249446375E0,-1.868740171E-1,4.568014145E-1,-6.078059226E-2,4.972762924E-1
7.259466375E0,-1.848769039E-1,4.413833320E-1,-6.015048921E-2,4.823036354E-1
7.269486375E0,-1.863859743E-1,4.350687563E-1,-6.419561803E-2,4.776459269E-1
7.279507375E0,-1.795927882E-1,4.283269644E-1,-7.240933925E-2,4.700645386E-1
7.289527375E0,-1.725030839E-1,4.047589898E-1,-8.042867482E-2,4.472761178E-1
7.299547375E0,-1.654100269E-1,3.489002585E-1,-8.858274668E-2,3.961549828E-1
7.309568375E0,-1.569144279E-1,2.509169877E-1,-9.967134148E-2,3.122752771E-1
7.319588375E0,-1.400448978E-1,1.282632500E-1,-9.951475263E-2,2.143996751E-1
7.329608375E0,-1.185137853E-1,2.495470084E-2,-9.510668367E-2,1.539919988E-1
7.339629375E0,-8.594705164E-2,-4.799726605E-2,-9.672162682E-2,1.380061822E-1
7.349649375E0,-5.668036267E-2,-8.213468641E-2,-9.053421766E-2,1.347412884E-1
7.359669375E0,-1.769327931E-2,-7.812529802E-2,-8.231437206E-2,1.148576082E-1
7.369690375E0,3.548268229E-2,-8.040165156E-2,-8.090412617E-2,1.194526013E-1
7.379710375E0,1.033195183E-1,-1.122426689E-1,-8.610847592E-2,1.751799338E-1
7.389730375E0,1.825669110E-1,-1.935799718E-1,-8.864680678E-2,2.804677144E-1
7.399750375E0,2.553332448E-1,-2.751384676E-1,-7.755500823E-2,3.832897357E-1
7.409771375E0,3.272417188E-1,-3.487503231E-1,-5.480892211E-2,4.813709051E-1
7.419791375E0,4.130346477E-1,-4.033568501E-1,-3.637532145E-2,5.784613494E-1
7.429811375E0,5.152482986E-1,-3.917888105E-1,-2.124476619E-2,6.476346357E-1
7.439832375E0,6.297074556E-1,-3.022623956E-1,-4.870585632E-3,6.985111009E-1
7.449852375E0,7.544438839E-1,-1.321378648E-1,7.869635592E-4,7.659285924E-1
7.459872375E0,8.860477209E-1,7.413329184E-2,-2.865566639E-4,8.891436278E-1
7.469893375E0,1.031984329E0,2.292466462E-1,-1.426654495E-2,1.057236594E0
7.479913375E0,1.178205967E0,2.901020050E-1,-2.693173848E-2,1.213694275E0
7.489933375E0,1.324019670E0,2.610892057E-1,-2.900915593E-2,1.349828579E0
7.499954375E0,1.464430213E0,2.148902863E-1,-3.028507717E-2,1.480422531E0
7.509974375E0,1.608548284E0,2.438803911E-1,-2.415234968E-2,1.627110495E0
7.519994375E0,1.757168651E0,3.595691621E-1,-1.098594628E-2,1.793614323E0
7.530015375E0,1.913024068E0,5.541877151E-1,-4.549220204E-3,1.991684163E0
7.540035375E0,2.087852955E0,7.630184293E-1,1.941968570E-3,2.222910447E0
7.550055375E0,2.270170450E0,9.194937944E-1,9.027779102E-3,2.449331381E0
7.560076375E0,2.467025518E0,1.019471765E0,1.814511046E-2,2.669431931E0
7.570096375E0,2.678874254E0,1.076377034E0,3.263078630E-2,2.887216576E0
7.580116375E0,2.914456606E0,1.079284906E0,5.604530126E-2,3.108384515E0
7.590136375E0,3.176882267E0,1.079690814E0,1.029629037E-1,3.356920397E0
7.600157375E0,3.454373837E0,1.110726953E0,1.637932360E-1,3.632250155E0
7.610177375E0,3.751147985E0,1.221909285E0,2.386207730E-1,3.952355422E0
7.620197375E0,4.065597534E0,1.422611475E0,3.318154216E-1,4.320070392E0
7.630218375E0,4.407972336E0,1.710055828E0,4.452978373E-1,4.748978965E0
7.640238375E0,4.765478134E0,1.997873545E0,5.724696517E-1,5.198942397E0
7.650258375E0,5.113620758E0,2.121770620E0,7.077746391E-1,5.581395234E0
7.660279375E0,5.460385323E0,2.017745972E0,8.389675021E-1,5.881409112E0
7.670299375E0,5.793024063E0,1.565650582E0,9.677163959E-1,6.078393255E0
7.680319375E0,6.109137535E0,7.999097705E-1,1.084846020E0,6.256061696E0
7.690340375E0,6.405711651E0,-2.236097455E-1,1.151383400E0,6.512205986E0
7.700360375E0,6.664823055E0,-1.369128108E0,1.171624184E0,6.904135092E0
7.710380375E0,6.886304855E0,-2.288516521E0,1.081963062E0,7.336834910E0
7.720401375E0,6.966568947E0,-3.044129133E0,9.988719225E-1,7.667956063E0
7.730421375E0,7.095143795E0,-3.472856283E0,8.704710603E-1,7.947296150E0
7.740441375E0,7.145233631E0,-3.704913855E0,6.431132555E-1,8.074301516E0
7.750461375E0,7.049463749E0,-3.774689198E0,3.894900084E-1,8.005930311E0
7.760482375E0,7.027847290E0,-3.752231359E0,1.598948985E-1,7.968402857E0
7.770502375E0,7.009874344E0,-3.734224558E0,-5.836458504E-2,7.942680769E0
7.780522375E0,6.983522415E0,-3.719473600E0,-2.744436264E-1,7.917031545E0
7.790543375E0,6.951813221E0,-3.724539518E0,-4.918389320E-1,7.902012859E0
7.800563375E0,6.914279938E0,-3.745259762E0,-7.082322240E-1,7.895304340E0
7.810583375E0,6.873529434E0,-3.783847094E0,-9.233754277E-1,7.900349859E0
7.820604375E0,6.823807240E0,-3.838607788E0,-1.142000675E0,7.912232336E0
7.830624375E0,6.763033390E0,-3.904557228E0,-1.360766053E0,7.926908101E0
7.840644375E0,6.699390888E0,-3.989620447E0,-1.582720280E0,7.956375624E0
7.850665375E0,6.623335838E0,-4.086226463E0,-1.806122184E0,7.989236614E0
7.860685375E0,6.537275791E0,-4.196647644E0,-2.033519983E0,8.030132610E0
7.870705375E0,6.439267635E0,-4.320817471E0,-2.263642788E0,8.078224431E0
7.880726375E0,6.327934265E0,-4.454919338E0,-2.499543905E0,8.132452158E0
7.890746375E0,6.206212521E0,-4.604740620E0,-2.736809969E0,8.198221687E0
7.900766375E0,6.066529751E0,-4.766575813E0,-2.981918097E0,8.271327810E0
7.910786375E0,5.909044266E0,-4.937438965E0,-3.227208138E0,8.349250267E0
7.920807375E0,5.738449574E0,-5.118485451E0,-3.475278378E0,8.438379976E0
7.930827375E0,5.541068077E0,-5.305093765E0,-3.726276398E0,8.528340465E0
7.940847375E0,5.323724270E0,-5.498344421E0,-3.977921724E0,8.625409713E0
7.950868375E0,5.089802265E0,-5.695849419E0,-4.228959084E0,8.731144405E0
7.960888375E0,4.829208374E0,-5.895963192E0,-4.474900246E0,8.837893849E0
7.970908375E0,4.546060085E0,-6.097227097E0,-4.714938641E0,8.948379012E0
7.980929375E0,4.245294094E0,-6.294972897E0,-4.948591709E0,9.062988780E0
7.990949375E0,3.918779850E0,-6.486339092E0,-5.173199177E0,9.175588268E0
8.000969375E0,3.566737175E0,-6.670874119E0,-5.387223721E0,9.286783889E0
8.010990375E0,3.191011429E0,-6.845438957E0,-5.585587025E0,9.393687820E0
8.021010375E0,2.794575930E0,-7.005072117E0,-5.767206192E0,9.494280239E0
8.031030375E0,2.377473116E0,-7.144430637E0,-5.927933216E0,9.583092390E0
8.041051375E0,1.942294598E0,-7.264011860E0,-6.065836430E0,9.660887547E0
8.051071375E0,1.491973519E0,-7.363153458E0,-6.176782608E0,9.725978471E0
8.061091000E0,1.030171990E0,-7.431879997E0,-6.261292458E0,9.772301564E0
8.071111000E0,5.580878854E-1,-7.476749420E0,-6.318706036E0,9.805064505E0
8.081132000E0,8.540316671E-2,-7.488296986E0,-6.344847202E0,9.815241794E0
8.091152000E0,-3.873877823E-1,-7.472593784E0,-6.338097572E0,9.806182131E0
8.101172000E0,-8.566996455E-1,-7.430864811E0,-6.300289631E0,9.779843330E0
8.111193000E0,-1.319983840E0,-7.362465382E0,-6.231557369E0,9.735530858E0
8.121213000E0,-1.772791266E0,-7.265620708E0,-6.135592937E0,9.673548152E0
8.131233000E0,-2.208708525E0,-7.147305012E0,-6.016215324E0,9.599854640E0
8.141254000E0,-2.626756907E0,-7.004537106E0,-5.870697975E0,9.509389393E0
8.151274000E0,-3.024363279E0,-6.843350887E0,-5.704181194E0,9.408289308E0
8.161294000E0,-3.394101381E0,-6.666433811E0,-5.516864300E0,9.295001649E0
8.171315000E0,-3.743288994E0,-6.472947598E0,-5.316344738E0,9.174681709E0
8.181335000E0,-4.064124584E0,-6.275466919E0,-5.098087311E0,9.049258970E0
8.191355000E0,-4.357801914E0,-6.066915035E0,-4.872007847E0,8.918203632E0
8.201376000E0,-4.631432056E0,-5.856471539E0,-4.637030125E0,8.789224662E0
8.211396000E0,-4.876196384E0,-5.647335529E0,-4.396073818E0,8.659974294E0
8.221416000E0,-5.098724842E0,-5.438888073E0,-4.156439781E0,8.535484177E0
8.231436000E0,-5.298112869E0,-5.229097366E0,-3.912471294E0,8.409571385E0
8.241457000E0,-5.478471756E0,-5.025321007E0,-3.668238640E0,8.289962528E0
8.251477000E0,-5.634654999E0,-4.827891350E0,-3.423171997E0,8.171657014E0
8.261497000E0,-5.771348476E0,-4.639492512E0,-3.185213089E0,8.060951335E0
8.271518000E0,-5.890014648E0,-4.458495140E0,-2.947020531E0,7.953325184E0
8.281538000E0,-5.995433807E0,-4.295368671E0,-2.713617325E0,7.858698209E0
8.291558000E0,-6.077898979E0,-4.137199879E0,-2.485888243E0,7.761244694E0
8.301579000E0,-6.152402401E0,-3.989819288E0,-2.264114141E0,7.674433276E0
8.311599000E0,-6.213717461E0,-3.851539373E0,-2.045875072E0,7.591458690E0
8.321619000E0,-6.261708736E0,-3.731419563E0,-1.830118537E0,7.515438917E0
8.331640000E0,-6.303068638E0,-3.618873596E0,-1.618891358E0,7.446188931E0
8.341660000E0,-6.333600998E0,-3.516179085E0,-1.418622136E0,7.381768468E0
8.351680000E0,-6.354225159E0,-3.423158169E0,-1.220637202E0,7.320119152E0
8.361701000E0,-6.369424343E0,-3.343213558E0,-1.026132226E0,7.266332686E0
8.371721000E0,-6.377492905E0,-3.271947384E0,-8.368368745E-1,7.216533197E0
8.381741000E0,-6.382088661E0,-3.215553522E0,-6.530124545E-1,7.176159516E0
8.391761000E0,-6.378541946E0,-3.164832830E0,-4.692103267E-1,7.135973832E0
8.401782000E0,-6.371552944E0,-3.124449730E0,-2.901737392E-1,7.102328761E0
8.411802000E0,-6.358817101E0,-3.097965956E0,-1.141897514E-1,7.074248178E0
8.421822000E0,-6.342319965E0,-3.084027767E0,6.046302244E-2,7.052652380E0
8.431843000E0,-6.319762707E0,-3.077680588E0,2.311434001E-1,7.033132001E0
8.441863000E0,-6.291243076E0,-3.081896782E0,4.059538245E-1,7.017309009E0
8.451883000E0,-6.260398865E0,-3.096888542E0,5.791145563E-1,7.008472463E0
8.461904000E0,-6.225973606E0,-3.121491909E0,7.495653629E-1,7.004877395E0
8.471924000E0,-6.187681675E0,-3.158974171E0,9.205917716E-1,7.008138949E0
8.481944000E0,-6.141559124E0,-3.207761526E0,1.090277433E0,7.014070670E0
8.491965000E0,-6.091763020E0,-3.267305374E0,1.264257312E0,7.027318667E0
8.501985000E0,-6.034772873E0,-3.342987299E0,1.443061709E0,7.048154000E0
8.512005000E0,-5.969398022E0,-3.424120665E0,1.621249318E0,7.070131853E0
8.522026000E0,-5.896495342E0,-3.510852098E0,1.794698358E0,7.093354776E0
8.532046000E0,-5.816264629E0,-3.603997469E0,1.976446033E0,7.122083327E0
8.542066000E0,-5.733014107E0,-3.707514048E0,2.157873154E0,7.160274276E0
8.552086000E0,-5.637927532E0,-3.813953161E0,2.340854406E0,7.198059803E0
8.562107000E0,-5.537622929E0,-3.935394287E0,2.525778294E0,7.247906724E0
8.572127000E0,-5.427253246E0,-4.062766552E0,2.712540388E0,7.301987758E0
8.582147000E0,-5.300738335E0,-4.186098576E0,2.899078608E0,7.350231626E0
8.592168000E0,-5.166136742E0,-4.315386772E0,3.087844133E0,7.405829678E0
8.602188000E0,-5.020238400E0,-4.447968960E0,3.275361061E0,7.464262290E0
8.612208000E0,-4.864024639E0,-4.575691223E0,3.456259727E0,7.519402713E0
8.622229000E0,-4.691634655E0,-4.712944508E0,3.640375137E0,7.581267230E0
8.632249000E0,-4.501726151E0,-4.827101231E0,3.825471163E0,7.628936639E0
8.642269000E0,-4.306505203E0,-4.943923473E0,4.000648022E0,7.680725940E0
8.652290000E0,-4.095039368E0,-5.056518555E0,4.173028946E0,7.729935181E0
8.662310000E0,-3.868100643E0,-5.161736965E0,4.336138725E0,7.772247431E0
8.672330000E0,-3.628528595E0,-5.260990143E0,4.496129036E0,7.814052301E0
8.682351000E0,-3.387791157E0,-5.225476742E0,4.705849648E0,7.805623422E0
8.692371000E0,-4.681714058E0,3.171761513E0,5.093441963E0,7.610628663E0
8.702391000E0,-4.008684158E0,3.010231209E1,8.088835716E0,3.142686757E1
8.712412000E0,3.842555523E0,3.475288773E1,-4.114552736E-1,3.496709501E1
8.722432000E0,1.752459526E0,3.487133789E1,9.239112139E-1,3.492756694E1
8.732452000E0,1.851701736E0,5.241243362E0,1.409157276E0,5.734558007E0
8.742472000E0,1.061599612E0,1.919464111E0,-3.993969560E-1,2.229541240E0
8.752493000E0,-8.940551281E-1,7.565973282E0,9.792745709E-1,7.681293183E0
8.762513000E0,1.147577643E0,-1.529667187E1,1.093953550E-1,1.534004798E1
8.772533000E0,-1.442183852E0,1.165514469E0,6.866651177E-1,1.977328305E0
8.782554000E0,-8.807463050E-1,3.940484285E0,1.497309804E0,4.306398391E0
8.792574000E0,-3.066977978E0,-1.949148774E0,9.965628982E-1,3.768112587E0
8.802594000E0,2.675146103E0,-9.086927772E-2,5.781350136E-1,2.738412677E0
8.812615000E0,-1.866605997E0,3.031017065E0,8.810939193E-1,3.667098157E0
8.822635000E0,-1.925723672E0,-5.612235665E-1,7.792224288E-1,2.151876192E0
8.832655000E0,-1.256363392E0,-2.286548615E0,7.208811641E-1,2.706736631E0
8.842676000E0,-1.360259414E0,2.622253001E-1,5.935652852E-1,1.507112314E0
8.852696000E0,-1.397119641E0,1.494960904E0,7.366613150E-1,2.174746259E0
8.862716000E0,-1.374592781E0,8.642092347E-1,7.704360485E-1,1.797201886E0
8.872737000E0,-9.680957198E-1,-1.764490008E-1,8.136973381E-1,1.276889553E0
8.882757000E0,-1.078439355E0,6.039310992E-2,9.916116595E-1,1.466278436E0
8.892777000E0,-9.063302875E-1,6.817352772E-1,1.241429329E0,1.681470891E0
8.902798000E0,-7.555362582E-1,5.991791487E-1,1.562534928E0,1.836128016E0
8.912818000E0,-6.621981859E-1,3.789372444E-1,1.762982726E0,1.920991402E0
8.922838000E0,-2.802097797E-1,3.821090758E-1,2.066622019E0,2.120247965E0
8.932858000E0,-3.528829664E-2,5.029948354E-1,2.333093405E0,2.386959133E0
8.942879000E0,1.948983073E-1,5.784381628E-1,2.555845261E0,2.627721647E0
8.952899000E0,6.770271063E-1,4.559423625E-1,2.743850708E0,2.862685077E0
8.962919000E0,1.002300739E0,2.941646874E-1,2.955519676E0,3.134682790E0
8.972940000E0,5.740323067E-1,-6.500209332E0,1.949785709E0,6.810572572E0
8.982960000E0,5.809442997E-1,-1.147928905E1,2.540153265E0,1.177131905E1
8.992980000E0,-9.505159222E-3,-7.135117531E0,2.622242689E0,7.601720151E0
9.003001000E0,2.770661592E0,-8.231768608E0,2.279340506E0,8.979642154E0
9.013021000E0,1.727440119E0,-9.892549515E0,2.224521160E0,1.028567352E1
9.023041000E0,1.265291333E0,-1.302103138E1,2.275204420E0,1.327873396E1
9.033062000E0,-9.968000054E-1,-1.501176262E1,1.002279162E0,1.507816934E1
9.043082000E0,-3.543058157E0,-2.376210928E0,1.323982716E0,4.466829940E0
9.053102000E0,-1.426295280E0,-3.888385773E0,1.322029471E0,4.347599805E0
9.063123375E0,-4.480680525E-1,-5.964858055E0,9.549774528E-1,6.057415169E0
9.073143375E0,-5.987772942E-1,-4.334596634E0,8.037052751E-1,4.448955427E0
9.083163375E0,-9.033449292E-1,-2.278488398E0,7.853313684E-1,2.573768987E0
9.093184375E0,5.547919273E-1,-4.073060989E0,6.652816534E-1,4.164158929E0
9.103204375E0,-1.456354409E-1,-3.931057453E0,5.936024189E-1,3.978289358E0
9.113224375E0,-1.454455554E-1,-3.161195040E0,5.529472232E-1,3.212484883E0
9.123244375E0,5.056424737E-1,-3.271775246E0,5.459870696E-1,3.355337457E0
9.133265375E0,6.309786439E-1,1.012392994E-2,4.738463759E-1,7.891558344E-1
9.143285375E0,-6.505802870E-1,3.011617422E0,3.479832411E-1,3.100675175E0
9.153305375E0,6.127883196E-1,2.071955919E0,3.158108592E-1,2.183631689E0
9.163326375E0,5.680187345E-1,1.572923303E0,1.199369878E-1,1.676638864E0
9.173346375E0,6.831180453E-1,2.033069134E0,8.864740282E-2,2.146597011E0
9.183366375E0,1.122506380E0,2.878886938E0,1.184404567E-1,3.092254633E0
9.193387375E0,9.417628646E-1,4.795803070E0,-1.022764221E-1,4.888466513E0
9.203407375E0,8.285321593E-1,5.591029167E0,1.920740306E-2,5.652118330E0
9.213427375E0,1.256682634E0,6.114020348E0,-2.994775586E-2,6.241906193E0
9.223448375E0,1.174800754E0,7.156509399E0,-6.976201385E-2,7.252630580E0
9.233468375E0,1.225667953E0,8.733895302E0,-1.139721945E-1,8.820214211E0
9.243488375E0,4.650175571E-1,1.031450462E1,-3.326158524E-1,1.033033786E1
9.253509375E0,-2.246304512E0,7.980958939E0,-4.705671072E-1,8.304397807E0
9.263529375E0,-1.882303804E-1,2.953067064E0,-5.261888355E-2,2.959527751E0
9.273549375E0,-1.415283799E0,5.370434284E0,-1.259862185E-1,5.555219632E0
9.283569375E0,-9.579742551E-1,5.922901154E0,6.441301852E-2,6.000218478E0
9.293590375E0,1.519931108E-1,2.244277477E0,5.732700974E-2,2.250148814E0
9.303610375E0,-2.662374377E-1,1.619349718E0,1.379395574E-1,1.646876803E0
9.313630375E0,-5.963181257E-1,1.903066635E0,1.550807506E-1,2.000326964E0
9.323651375E0,-2.720442414E-1,1.024529219E0,1.208450124E-1,1.066898171E0
9.333671375E0,-8.216789365E-2,5.661049485E-2,1.390221119E-1,1.711241025E-1
9.343691375E0,-1.088098884E-1,-4.009663761E-1,1.668199152E-1,4.477080641E-1
9.353712375E0,1.143033057E-1,-1.113185763E0,2.323473990E-1,1.142905553E0
9.363732375E0,2.777436376E-1,-1.766577959E0,3.007935882E-1,1.813399017E0
9.373752375E0,4.532516301E-1,-2.429203033E0,3.533174992E-1,2.496256732E0
9.383773375E0,6.029332876E-1,-3.128745079E0,3.594033420E-1,3.206516035E0
9.393793375E0,7.338455319E-1,-3.882539272E0,3.629160523E-1,3.967914884E0
9.403813375E0,8.269389868E-1,-4.785676003E0,3.276105523E-1,4.867633055E0
9.413834375E0,8.714404106E-1,-5.753033161E0,2.743721008E-1,5.825124805E0
9.423854375E0,8.699317575E-1,-6.997145176E0,1.134045050E-1,7.051927570E0
9.433874375E0,6.216178536E-1,-8.821577072E0,1.755668521E-1,8.845193865E0
9.443895375E0,-1.033834577E0,-6.837609768E0,2.947070897E-1,6.921601949E0
9.453915375E0,-1.681624532E0,-2.921062708E0,8.698933572E-2,3.371651755E0
9.463935375E0,-2.243574411E-1,-2.114749670E0,-7.512367517E-2,2.127944077E0
9.473955375E0,3.913045824E-1,-3.267341375E0,-6.389855593E-2,3.291310068E0
9.483976375E0,-1.879489422E-1,-2.197813988E0,-4.457173124E-2,2.206285967E0
9.493996375E0,-3.051655889E-1,-7.740604281E-1,-8.502434194E-2,8.363759452E-1
9.504016375E0,-1.430986375E-1,-4.691255689E-1,-7.899521291E-2,4.967859328E-1
9.514037375E0,-5.110471323E-2,1.903260499E-1,-7.511249185E-2,2.108970920E-1
9.524057375E0,4.099618644E-2,9.516609311E-1,-8.978544176E-2,9.567657188E-1
9.534077375E0,1.926181167E-1,1.645568490E0,-1.205997467E-1,1.661186833E0
9.544098375E0,3.463451266E-1,2.391425610E0,-1.655467153E-1,2.422039865E0
9.554118375E0,4.468295574E-1,3.233618021E0,-1.622202247E-1,3.268372311E0
9.564138375E0,5.381472707E-1,3.928506136E0,-1.443839669E-1,3.967821780E0
9.574159375E0,5.670874715E-1,4.875363827E0,-9.176321328E-2,4.909091681E0
9.584179375E0,4.967142642E-1,5.596250057E0,-1.102934927E-1,5.619333094E0
9.594199375E0,-1.897094101E-1,5.494912148E0,-2.738843262E-1,5.505003342E0
9.604220375E0,-1.292992353E0,4.712697983E0,-2.761212876E-3,4.886855751E0
9.614240375E0,-8.662665486E-1,3.925459146E0,-4.794054106E-2,4.020192227E0
9.624260375E0,2.819183171E-1,1.638512254E0,-1.679194346E-2,1.662673243E0
9.634281375E0,-8.633118123E-2,1.538492680E0,-3.241028637E-2,1.541253783E0
9.644301375E0,-2.169888020E-1,1.075217962E0,5.947010219E-2,1.098505576E0
9.654321375E0,-1.002029143E-2,2.248741388E-1,1.335502416E-2,2.254931068E-1
9.664341375E0,2.805705369E-2,-4.092969596E-1,2.214025892E-2,4.108544639E-1
9.674362375E0,1.152601838E-1,-1.072625756E0,2.543058060E-2,1.079100383E0
9.684382375E0,2.240013033E-1,-1.751874208E0,5.551604927E-2,1.767009298E0
9.694402375E0,3.611547649E-1,-2.535972357E0,4.812302068E-2,2.562011784E0
9.704423375E0,4.829576313E-1,-3.277172327E0,2.987797186E-2,3.312702707E0
9.714443375E0,4.980322421E-1,-4.080742836E0,5.632531643E-2,4.111407393E0
9.724463375E0,4.418901503E-1,-5.168332100E0,7.193117589E-2,5.187687124E0
9.734484375E0,1.159528047E-1,-5.899035454E0,1.260783523E-1,5.901521845E0
9.744504375E0,-7.579238415E-1,-3.219310760E0,1.784198433E-1,3.312135861E0
9.754524375E0,-4.547953606E-1,-1.611807585E0,-2.559370734E-2,1.674938073E0
9.764545375E0,-1.876238361E-2,-1.837801337E0,-3.004508559E-3,1.837899565E0
9.774565375E0,-3.386081755E-2,-1.178128242E0,-4.189246334E-3,1.178622187E0
9.784585375E0,-9.758733958E-2,-3.390352130E-1,2.746956656E-3,3.528111538E-1
9.794606375E0,1.383243687E-2,2.726600766E-1,3.238520585E-3,2.730299282E-1
9.804626375E0,6.498616934E-2,9.925860167E-1,-6.792542059E-3,9.947343069E-1
9.814646375E0,1.986258179E-1,1.700101614E0,-2.565334551E-2,1.711857415E0
9.824667375E0,2.851138413E-1,2.421533108E0,-3.655472770E-2,2.438534138E0
9.834687375E0,3.194437027E-1,3.145681858E0,-4.473152012E-2,3.162176393E0
9.844707375E0,2.939426303E-1,3.865860224E0,-5.987212434E-2,3.877481426E0
9.854728375E0,9.028568119E-2,4.249732971E0,-1.154694483E-1,4.252259990E0
9.864748375E0,-6.079456210E-1,3.426676989E0,-7.264768332E-2,3.480946818E0
9.874768375E0,-5.271861553E-1,2.930361509E0,-1.189828385E-2,2.977429325E0
9.884788375E0,-2.480567433E-3,1.515234709E0,-2.236690372E-2,1.515401813E0
9.894809375E0,-4.635150731E-2,9.695482254E-1,-1.760183461E-2,9.708151463E-1
9.904829375E0,-3.805363178E-2,3.922399282E-1,9.739775211E-3,3.942018562E-1
9.914849375E0,2.706784941E-2,-2.981955111E-1,3.984950483E-3,2.994480108E-1
9.924870375E0,1.009793580E-1,-9.554706216E-1,6.373539567E-3,9.608129690E-1
9.934890375E0,1.763823330E-1,-1.623139024E0,1.688620262E-2,1.632781725E0
9.944910375E0,2.542110682E-1,-2.321653128E0,2.931544185E-2,2.335713148E0
9.954931375E0,3.057989478E-1,-3.028681755E0,3.281678259E-2,3.044257399E0
9.964951375E0,2.828912139E-1,-3.828088284E0,4.789720103E-2,3.838825535E0
9.974971375E0,6.386416499E-3,-4.011525154E0,8.480682224E-2,4.012426578E0
9.984992375E0,-4.163805544E-1,-2.374210119E0,8.295858651E-2,2.411872423E0
9.995012375E0,-1.736526489E-1,-1.533443451E0,4.285325762E-3,1.543250603E0
1.000503238E1,-4.626605660E-3,-1.227620721E0,-3.520133439E-3,1.227634486E0
1.001505338E1,-4.569046199E-2,-4.191268981E-1,4.328615963E-3,4.216321998E-1
1.002507337E1,-4.013591446E-3,1.817158163E-1,-1.412093639E-3,1.817656205E-1
1.003509337E1,6.710447371E-2,8.465952277E-1,-1.151770540E-2,8.493286452E-1
1.004511437E1,1.392588168E-1,1.522820950E0,-2.155622467E-2,1.529327085E0
1.005513437E1,1.969180852E-1,2.200415850E0,-2.733926848E-2,2.209378664E0
1.006515450E1,1.756575406E-1,2.842020273E0,-3.955385461E-2,2.847718264E0
1.007517550E1,8.533201367E-2,3.255991697E0,-6.546467543E-2,3.257767504E0
1.008519550E1,-3.325989246E-1,2.907915592E0,-6.352616102E-2,2.927563955E0
1.009521550E1,-3.666574657E-1,2.325252533E0,-1.225691754E-2,2.354015138E0
1.010523550E1,-3.728570044E-2,1.322279334E0,-1.842586324E-2,1.322933246E0
1.011525650E1,-4.982753098E-2,7.371216416E-1,-1.372003462E-2,7.389312125E-1
1.012527650E1,2.152848523E-3,1.010613143E-1,2.134562237E-3,1.011067771E-1
1.013529650E1,5.965677649E-2,-5.330404043E-1,1.037237700E-2,5.364686289E-1
1.014531750E1,1.025714874E-1,-1.174315929E0,1.237187814E-2,1.178851931E0
1.015533750E1,1.686326712E-1,-1.804063678E0,2.098929696E-2,1.812049470E0
1.016535750E1,2.065321058E-1,-2.439347029E0,3.143741190E-2,2.448276485E0
1.017537850E1,2.074612528E-1,-3.095269918E0,4.280618578E-2,3.102510018E0
1.018539850E1,-4.345140234E-2,-2.835757732E0,4.345999286E-2,2.836423578E0
1.019541850E1,-2.044904679E-1,-1.834301472E0,4.777932540E-2,1.846283051E0
1.020543950E1,-8.435768634E-2,-1.255823970E0,1.826830581E-2,1.258786635E0
1.021545950E1,-2.827318944E-2,-6.581000686E-1,6.733959541E-3,6.587415424E-1
1.022547950E1,-8.140489459E-3,-3.317441419E-2,-1.675237785E-3,3.419964542E-2
1.023550050E1,3.629913181E-2,5.792064667E-1,-5.870420486E-3,5.803724837E-1
1.024552050E1,8.255983889E-2,1.208673358E0,-1.695636101E-2,1.211608407E0
1.025554050E1,1.161876693E-1,1.825485110E0,-2.595801093E-2,1.829363081E0
1.026556150E1,1.385193467E-1,2.376308441E0,-3.714195639E-2,2.380632047E0
1.027558150E1,-8.426883072E-2,2.644664526E0,-4.346320406E-2,2.646363683E0
1.028560150E1,-2.294840813E-1,2.237492800E0,-3.775232285E-2,2.249547112E0
1.029562150E1,-1.769254655E-1,1.601801276E0,-2.125281468E-2,1.611682857E0
1.030564250E1,-4.058360308E-2,8.985698819E-1,-1.114265621E-2,8.995549012E-1
1.031566250E1,-2.107623965E-2,2.886547446E-1,-6.006923970E-3,2.894854964E-1
1.032568250E1,3.905127943E-2,-3.166130483E-1,7.140569855E-3,3.190921693E-1
1.033570350E1,7.598758489E-2,-9.228445888E-1,1.268105675E-2,9.260545649E-1
1.034572350E1,1.213356256E-1,-1.503826261E0,1.973763481E-2,1.508842381E0
1.035574350E1,1.445684135E-1,-2.049565554E0,2.552178688E-2,2.054816378E0
1.036576450E1,1.086714119E-1,-2.502306223E0,3.329395503E-2,2.504886104E0
1.037578450E1,-6.998180598E-2,-2.137288570E0,4.215295613E-2,2.138849401E0
1.038580450E1,-9.025298804E-2,-1.468000174E0,2.321787924E-2,1.470955194E0
1.039582550E1,-5.629589036E-2,-8.782809377E-1,1.500196196E-2,8.802111631E-1
1.040584550E1,-7.300386205E-3,-2.686109543E-1,4.413234070E-3,2.687463805E-1
1.041586550E1,1.049894374E-2,2.827149332E-1,-2.498633228E-3,2.829208448E-1
1.042588650E1,5.521075428E-2,8.881704807E-1,-8.095532656E-3,8.899216639E-1
1.043590650E1,8.593682945E-2,1.443360686E0,-2.351039462E-2,1.446107862E0
1.044592650E1,6.965293735E-2,1.944833159E0,-2.892833017E-2,1.946295044E0
1.045594750E1,-8.129526675E-2,2.149874687E0,-3.333032131E-2,2.151669352E0
1.046596750E1,-1.321446002E-1,1.827022672E0,-2.761251479E-2,1.832003409E0
1.047598750E1,-1.072056741E-1,1.254528046E0,-1.534742210E-2,1.259193876E0
1.048600850E1,-3.636825830E-2,6.572207212E-1,-7.190425415E-3,6.582654699E-1
1.049602850E1,3.317400347E-3,8.052131534E-2,-1.750574680E-3,8.060863403E-2
1.050604850E1,4.439426214E-2,-4.708662033E-1,9.548685513E-3,4.730507471E-1
1.051606850E1,6.926289201E-2,-1.013679504E0,1.435164269E-2,1.016144407E0
1.052608950E1,1.032863781E-1,-1.526965737E0,2.016478963E-2,1.530587814E0
1.053610950E1,9.536882490E-2,-1.960513234E0,2.940564044E-2,1.963051718E0
1.054612950E1,-2.670674957E-2,-1.894516349E0,3.695916384E-2,1.895065019E0
1.055615050E1,-6.960111111E-2,-1.413332343E0,3.009060957E-2,1.415364996E0
1.056617050E1,-7.703918032E-3,-8.317270279E-1,8.108612150E-3,8.318022294E-1
1.057619050E1,-2.118299529E-2,-2.855734229E-1,7.058222312E-3,2.864449645E-1
1.058621150E1,1.613055542E-2,2.608709931E-1,-2.327290364E-3,2.613795825E-1
1.059623150E1,3.727351874E-2,7.975874543E-1,-1.435168181E-2,7.985868977E-1
1.060625150E1,4.695490748E-2,1.287200093E0,-2.138375863E-2,1.288233717E0
1.061627250E1,3.000957705E-2,1.660553336E0,-2.452152595E-2,1.661005497E0
1.062629250E1,-1.415255852E-2,1.747227311E0,-2.944810875E-2,1.747532764E0
1.063631250E1,-1.160334349E-1,1.419990420E0,-2.191041410E-2,1.424891792E0
1.064633350E1,-5.443611369E-2,8.606709242E-1,-1.553853601E-2,8.625306814E-1
1.065635350E1,-1.522394828E-2,3.311983943E-1,-2.778946189E-3,3.315597496E-1
1.066637350E1,1.854972914E-2,-2.074618787E-1,6.115240976E-4,2.082904163E-1
1.067639450E1,5.828461051E-2,-7.156464458E-1,1.213431731E-2,7.181184950E-1
1.068641450E1,6.205111742E-2,-1.196537256E0,1.754825749E-2,1.198273628E0
1.069643450E1,6.283068657E-2,-1.557090759E0,2.215448581E-2,1.558515367E0
1.070645450E1,9.179442190E-3,-1.578306079E0,3.081242181E-2,1.578633506E0
1.071647550E1,-6.115803868E-2,-1.238049626E0,2.083224803E-2,1.239734312E0
1.072649550E1,-3.031089902E-3,-7.307265401E-1,9.062142111E-3,7.307890163E-1
1.073651550E1,-1.475971192E-2,-2.462525815E-1,5.425039679E-3,2.467541571E-1
1.074653650E1,1.150704548E-2,2.428156435E-1,-3.689895384E-3,2.431161537E-1
1.075655650E1,3.459686413E-2,7.319157720E-1,-1.198429149E-2,7.328309925E-1
1.076657650E1,1.437361725E-2,1.130213737E0,-1.650873572E-2,1.130425686E0
1.077659750E1,8.196452633E-3,1.396952868E0,-2.233179659E-2,1.397155398E0
1.078661750E1,-4.007041454E-2,1.356714368E0,-2.526846528E-2,1.357541163E0
1.079663750E1,-9.130218625E-2,1.089471340E0,-1.764320768E-2,1.093432747E0
1.080665850E1,-1.900721900E-2,5.977988243E-1,-1.956308074E-2,5.984207741E-1
1.081667850E1,2.674693707E-3,1.190995798E-1,9.929521475E-4,1.191337477E-1
1.082669850E1,2.985012159E-2,-3.945498765E-1,3.537070006E-3,3.956932469E-1
1.083671950E1,4.806631058E-2,-8.355981112E-1,1.147155184E-2,8.370580446E-1
1.084673950E1,4.794327170E-2,-1.189651489E0,1.996783540E-2,1.190784589E0
1.085675950E1,1.076235808E-2,-1.302684784E0,2.165977843E-2,1.302909291E0
1.086678050E1,-4.909812473E-3,-1.094823956E0,1.594756357E-2,1.094951107E0
1.087680050E1,-1.217320468E-2,-7.764836550E-1,1.643959060E-2,7.767530582E-1
1.088682050E1,-1.793628559E-2,-3.281181455E-1,9.141605115E-4,3.286092869E-1
1.089684050E1,2.105451003E-2,1.021595672E-1,1.297217328E-3,1.043146794E-1
1.090686150E1,-2.788239159E-3,5.214939713E-1,-5.458157044E-3,5.215299875E-1
1.091688150E1,2.126934752E-2,8.822367787E-1,-1.458500512E-2,8.826136421E-1
1.092690250E1,-3.874776885E-4,1.119888783E0,-1.685827971E-2,1.120015731E0
1.093692250E1,-1.617671922E-2,1.115411043E0,-2.237141505E-2,1.115752644E0
1.094694250E1,-5.883629620E-2,9.234632254E-1,-7.980490103E-3,9.253700485E-1
1.095696250E1,-2.072200179E-2,5.154558420E-1,-1.496399008E-2,5.160891855E-1
1.096698350E1,-4.193357192E-3,1.251547039E-1,-4.449679400E-4,1.252257247E-1
1.097700350E1,1.293161511E-2,-3.161188960E-1,-1.293965615E-4,3.163833115E-1
1.098702350E1,4.175314307E-2,-6.886309385E-1,9.955728427E-3,6.899673985E-1
1.099704450E1,1.935284026E-2,-9.493692517E-1,1.416225173E-2,9.496720897E-1
1.100706450E1,3.703330085E-2,-1.076240063E0,1.725791022E-2,1.077015308E0
1.101708450E1,-2.425973304E-2,-8.925340176E-1,1.597092859E-2,8.930064825E-1
1.102710550E1,-7.236539386E-3,-6.078205109E-1,9.582006373E-3,6.079391053E-1
1.103712550E1,4.139300436E-4,-2.497201115E-1,2.330884337E-3,2.497313325E-1
1.104714550E1,5.712555256E-3,1.358664781E-1,-2.145649050E-4,1.359866876E-1
1.105716650E1,-1.645758748E-3,4.919643998E-1,-8.820570074E-3,4.920462190E-1
1.106718588E1,1.593083888E-2,7.488763928E-1,-1.209918689E-2,7.491435334E-1
1.107720588E1,-3.356795758E-3,9.399424791E-1,-1.548141800E-2,9.400759578E-1
1.108722688E1,-3.949083388E-2,9.006935954E-1,-1.483506896E-2,9.016809624E-1
1.109724688E1,-4.750022665E-3,6.756942868E-1,-1.249819249E-2,6.758265582E-1
1.110726688E1,-2.624546178E-2,3.789848387E-1,-4.244523589E-3,3.799162384E-1
1.111728788E1,2.039585728E-3,-8.557258174E-3,-4.987990949E-3,1.011269653E-2
1.112730788E1,3.028001264E-2,-3.733203113E-1,6.042555906E-3,3.745950433E-1
1.113732787E1,9.981612675E-3,-6.483582854E-1,1.125411410E-2,6.485327701E-1
1.114734887E1,1.519102231E-2,-8.267909288E-1,1.275027823E-2,8.270287642E-1
1.115736887E1,5.964597221E-3,-8.326138258E-1,1.273612864E-2,8.327325911E-1
1.116738888E1,2.559745684E-3,-6.223903298E-1,1.158857252E-2,6.225034699E-1
1.117740888E1,1.559104770E-3,-3.681799769E-1,5.682112183E-3,3.682271210E-1
1.118742988E1,-1.466593705E-2,-1.002617106E-1,2.023194917E-3,1.013488709E-1
1.119744988E1,1.150784455E-2,1.811394989E-1,-2.651262563E-3,1.815240418E-1
1.120746988E1,-5.234916694E-3,4.304728806E-1,-5.953582469E-3,4.305458749E-1
1.121749088E1,1.651458815E-2,6.582682133E-1,-9.392788634E-3,6.585423272E-1
1.122751088E1,1.261065714E-3,7.758973837E-1,-9.259896353E-3,7.759536623E-1
1.123753087E1,-3.716627508E-2,6.985223889E-1,-9.351223707E-3,6.995729449E-1
1.124755187E1,-2.341450565E-2,4.801746607E-1,-7.443868089E-3,4.808028234E-1
1.125757187E1,6.735114381E-3,2.037849575E-1,-4.437906202E-3,2.039445162E-1
1.126759188E1,-4.121794365E-3,-7.882437110E-2,4.683154169E-3,7.907087075E-2
1.127761288E1,1.328815054E-2,-3.636665642E-1,2.568226308E-3,3.639183159E-1
1.128763288E1,3.042798862E-2,-5.626683235E-1,8.381640539E-3,5.635527985E-1
1.129765288E1,1.289320271E-2,-7.030072212E-1,1.294350438E-2,7.032445678E-1
1.130767388E1,-7.594495080E-3,-6.535539031E-1,1.297759265E-2,6.537268531E-1
1.131769388E1,4.664286971E-4,-4.311248362E-1,8.147220127E-3,4.312020630E-1
1.132771387E1,8.675356396E-3,-1.866677254E-1,2.612638287E-3,1.868874726E-1
1.133773488E1,-1.509932801E-2,7.491290569E-2,-1.860061078E-3,7.644208902E-2
1.134775487E1,1.715900749E-2,3.223155141E-1,-3.974078223E-3,3.227963994E-1
1.135777487E1,-2.035912126E-3,5.561580658E-1,-6.838112604E-3,5.562038285E-1
1.136779587E1,-1.898000762E-2,6.246063709E-1,-1.065495517E-2,6.249855097E-1
1.137781588E1,9.453468956E-4,5.727307200E-1,-8.150865324E-3,5.727894971E-1
1.138783588E1,-2.143532597E-2,3.650960624E-1,-5.914076231E-3,3.657725855E-1
1.139785588E1,4.158020951E-3,1.529777944E-1,-3.306431230E-3,1.530700075E-1
1.140787688E1,-4.688201472E-3,-8.788435161E-2,2.130145673E-3,8.803508398E-2
1.141789688E1,9.859686717E-3,-3.068071604E-1,3.794447985E-3,3.069889980E-1
1.142791687E1,2.073870040E-2,-4.882411361E-1,7.622742094E-3,4.887408381E-1
1.143793787E1,-1.732220873E-3,-5.680019855E-1,6.832396612E-3,5.680457181E-1
1.144795787E1,1.914376579E-2,-5.280151963E-1,8.221501485E-3,5.284260823E-1
1.145797787E1,-1.528384071E-2,-3.187088668E-1,7.385487668E-3,3.191605913E-1
1.146799887E1,6.104805507E-3,-7.341147959E-2,1.696975552E-3,7.368441974E-2
1.147801888E1,1.724313013E-3,1.860003471E-1,-1.621104311E-3,1.860154036E-1
1.148803888E1,8.349991404E-3,4.108372033E-1,-7.501097862E-3,4.109905065E-1
1.149805988E1,-1.980928704E-2,5.106722116E-1,-9.988152422E-3,5.111538700E-1
1.150807988E1,-3.143492155E-3,4.796924889E-1,-7.462676615E-3,4.797608331E-1
1.151809988E1,-1.275402494E-2,3.639079928E-1,-5.741837434E-3,3.641766894E-1
1.152812088E1,-4.251083359E-3,1.505054384E-1,-3.042190801E-3,1.505961940E-1
1.153814087E1,9.945587255E-3,-6.556279212E-2,1.740970649E-3,6.633570227E-2
1.154816087E1,1.123162732E-2,-2.639123797E-1,3.668300342E-3,2.641767402E-1
1.155818187E1,5.686262622E-3,-4.240370393E-1,5.585333798E-3,4.241119430E-1
1.156820187E1,8.317199536E-3,-4.539499283E-1,7.400544360E-3,4.540864249E-1
1.157822188E1,6.166811101E-3,-4.140535891E-1,4.664417356E-3,4.141257792E-1
1.158824288E1,1.326782163E-3,-2.464624494E-1,3.662003204E-3,2.464932242E-1
1.159826288E1,-1.410664059E-3,6.113255862E-3,-1.382917166E-3,6.424510115E-3
1.160828288E1,8.441700600E-3,2.463599443E-1,-3.630358726E-3,2.465312637E-1
1.161830388E1,-3.066117875E-3,3.853856623E-1,-6.302385125E-3,3.854493869E-1
1.162832388E1,-1.054746937E-2,4.101099074E-1,-7.843556814E-3,4.103204926E-1
1.163834387E1,-6.686199456E-3,3.597416878E-1,-6.391986273E-3,3.598605906E-1
1.164836387E1,-7.197260857E-5,2.281541079E-1,-3.460644512E-3,2.281803633E-1
1.165838487E1,1.070960891E-3,2.185647190E-2,-1.318231691E-3,2.192236428E-2
1.168041167E1,-3.345668614E-1,-2.620112896E-1,2.488668710E-1,4.924628109E-1
1.169043167E1,-3.052109778E-1,-2.604925632E-1,2.557024658E-1,4.758086459E-1
1.170045267E1,-2.789998651E-1,-2.439586222E-1,2.585025132E-1,4.518631246E-1
1.171047267E1,-2.529339790E-1,-2.294981182E-1,2.602512240E-1,4.293898970E-1
1.172049267E1,-2.251377851E-1,-2.055949271E-1,2.640515566E-1,4.033354942E-1
1.173051367E1,-2.042082399E-1,-1.806968451E-1,2.701011002E-1,3.838058876E-1
1.174053367E1,-1.799907833E-1,-1.680873036E-1,2.763510048E-1,3.701619937E-1
1.175055367E1,-1.605917811E-1,-1.832540035E-1,2.806493342E-1,3.716662465E-1
1.176057467E1,-1.467904747E-1,-2.278912514E-1,2.734225988E-1,3.850217961E-1
1.177059467E1,-1.340309530E-1,-2.839616835E-1,2.639015615E-1,4.101738269E-1
1.178061467E1,-1.253290772E-1,-3.286085129E-1,2.481026053E-1,4.304019460E-1
1.179063567E1,-1.241908967E-1,-3.664624393E-1,2.378507406E-1,4.541927708E-1
1.180065567E1,-1.298828721E-1,-4.041847885E-1,2.166514546E-1,4.766264328E-1
1.181067567E1,-1.264645308E-1,-4.357122183E-1,1.921092719E-1,4.926909651E-1
1.182069667E1,-1.281396598E-1,-4.569343925E-1,1.774879843E-1,5.066663557E-1
1.183071667E1,-1.112135574E-1,-4.658586383E-1,1.607077122E-1,5.051927305E-1
1.184073667E1,-1.069716737E-1,-4.750981927E-1,1.368923932E-1,5.058663450E-1
1.185075767E1,-9.813782573E-2,-4.598194063E-1,1.093291566E-1,4.827191561E-1
1.186077767E1,-9.976581484E-2,-4.187997878E-1,8.474311978E-2,4.387799863E-1
1.187079767E1,-1.018163189E-1,-3.569700420E-1,6.550408900E-2,3.769415861E-1
1.188081867E1,-9.422390908E-2,-2.530740201E-1,4.873762280E-2,2.744083829E-1
1.189083867E1,-8.864095807E-2,-1.301996112E-1,3.583504260E-2,1.615342331E-1
1.190085867E1,-9.012594074E-2,-1.686098287E-3,1.858814619E-2,9.203829258E-2
1.191087938E1,-8.763569593E-2,1.153124869E-1,9.255968966E-3,1.451297964E-1
1.192089938E1,-7.468101382E-2,2.034018785E-1,-5.550940521E-3,2.167496042E-1
1.193091938E1,-5.543149635E-2,2.957909703E-1,-1.902748272E-2,3.015410321E-1
1.194094038E1,-4.923405498E-2,3.875238299E-1,-3.121837042E-2,3.918842911E-1
1.195096038E1,-4.382470250E-2,5.050664544E-1,-5.413223058E-2,5.098460810E-1
1.196098038E1,-6.951222569E-2,6.647444963E-1,-4.770655558E-2,6.700694818E-1
1.197100138E1,-7.402272522E-2,7.010424733E-1,-5.146732554E-2,7.068159583E-1
1.198102138E1,-8.807462454E-2,6.859319210E-1,-6.773231924E-2,6.948722234E-1
1.199104138E1,-1.000038907E-1,6.679498553E-1,-7.841181010E-2,6.799310254E-1
1.200106238E1,-1.109758466E-1,6.221770644E-1,-9.221044928E-2,6.386882690E-1
1.201108238E1,-1.172814891E-1,5.831466317E-1,-1.028062925E-1,6.036423407E-1
1.202110238E1,-1.229830608E-1,5.424076915E-1,-1.109632850E-1,5.671364806E-1
1.203112338E1,-1.383739710E-1,4.805729985E-1,-1.191885546E-1,5.141047309E-1
1.204114338E1,-1.489240825E-1,4.115627706E-1,-1.262160987E-1,4.555137759E-1
1.205116338E1,-1.584562510E-1,3.496242464E-1,-1.322444528E-1,4.059976508E-1
1.206118438E1,-1.591292322E-1,3.154290020E-1,-1.319722831E-1,3.771395649E-1
1.207120438E1,-1.585334837E-1,3.153275251E-1,-1.307693273E-1,3.763840200E-1
1.208122438E1,-1.564021558E-1,3.262238503E-1,-1.304047406E-1,3.845634293E-1
1.209124538E1,-1.493641585E-1,3.369505405E-1,-1.310102940E-1,3.911636687E-1
1.210126538E1,-1.419278234E-1,3.500703275E-1,-1.327959448E-1,4.004091710E-1
1.211128538E1,-1.305735558E-1,3.518048227E-1,-1.371662766E-1,3.995380760E-1
1.212130538E1,-1.238682494E-1,3.388373554E-1,-1.423511803E-1,3.878375370E-1
1.213132638E1,-1.136402190E-1,2.937978506E-1,-1.454425007E-1,3.469651242E-1
1.214134638E1,-1.095820963E-1,2.335957885E-1,-1.514316797E-1,2.991768404E-1
1.215136638E1,-1.046464145E-1,1.583788991E-1,-1.532544941E-1,2.439706698E-1
1.216138738E1,-1.026570350E-1,7.509572804E-2,-1.547008604E-1,2.002752891E-1
1.217140738E1,-1.086561456E-1,-4.223724455E-2,-1.665139496E-1,2.032659298E-1
1.218142738E1,-1.082276478E-1,-1.687219441E-1,-1.728408188E-1,2.646776659E-1
1.219144838E1,-1.055964977E-1,-2.774348557E-1,-1.797949374E-1,3.470546628E-1
1.220146838E1,-1.116354838E-1,-3.365447819E-1,-1.901583523E-1,4.023494382E-1
1.221148838E1,-1.183474585E-1,-3.426737785E-1,-2.019476891E-1,4.149871185E-1
1.222150938E1,-1.298174113E-1,-3.083712161E-1,-2.024017572E-1,3.910394334E-1
1.223152938E1,-1.408394724E-1,-2.452344894E-1,-1.933333427E-1,3.425689612E-1
1.224154938E1,-1.515621543E-1,-1.849301457E-1,-1.784915328E-1,2.983780701E-1
1.225157038E1,-1.529401392E-1,-1.265813559E-1,-1.658641696E-1,2.586976007E-1
1.226159038E1,-1.536991298E-1,-6.820753962E-2,-1.540836841E-1,2.280733932E-1
1.227161038E1,-1.539151222E-1,8.216927759E-3,-1.381066293E-1,2.069560914E-1
1.228163138E1,-1.552533656E-1,1.035061628E-1,-1.233098358E-1,2.236569893E-1
1.229165138E1,-1.566241384E-1,1.771569252E-1,-1.061235964E-1,2.591870263E-1
1.230167138E1,-1.591317654E-1,2.193816155E-1,-9.304854274E-2,2.865471048E-1
1.231169238E1,-1.650698334E-1,2.170290649E-1,-7.834597677E-2,2.837036429E-1
1.232171238E1,-1.793523729E-1,1.464134753E-1,-6.655056775E-2,2.409007212E-1
1.233173238E1,-1.787610799E-1,3.841610625E-2,-6.440173835E-2,1.938527916E-1
1.234175338E1,-1.871894449E-1,-1.106175855E-1,-6.037477404E-2,2.256573771E-1
1.235177338E1,-1.936545968E-1,-2.657773495E-1,-5.430492014E-2,3.332997550E-1
1.236179338E1,-1.958077699E-1,-4.152097106E-1,-5.271128565E-2,4.620803676E-1
1.237181438E1,-2.000657618E-1,-5.212584734E-1,-4.956325516E-2,5.605294117E-1
1.238183438E1,-1.930414140E-1,-5.679308772E-1,-4.617464915E-2,6.016166280E-1
1.239185438E1,-1.916105449E-1,-5.676025152E-1,-4.801860079E-2,6.009933462E-1
1.240187538E1,-1.899074614E-1,-5.041441917E-1,-4.433491454E-2,5.405476802E-1
1.241189538E1,-1.926287860E-1,-3.976391852E-1,-3.845932707E-2,4.435108687E-1
1.242191538E1,-1.966685355E-1,-2.740613222E-1,-3.403209150E-2,3.390373201E-1
1.243193638E1,-2.000601143E-1,-1.452748626E-1,-3.026871011E-2,2.490883977E-1
1.244195638E1,-2.013863772E-1,-1.010212488E-2,-1.478669047E-2,2.021810379E-1
1.245197638E1,-1.980882138E-1,1.156246886E-1,-1.114383433E-2,2.296349148E-1
1.246199738E1,-1.964660734E-1,2.240558267E-1,-8.592384402E-4,2.979944123E-1
1.247201738E1,-1.964605451E-1,3.049091101E-1,-4.669104237E-5,3.627207098E-1
1.248203738E1,-1.896305978E-1,3.711861372E-1,-6.298994180E-3,4.168675922E-1
1.249205838E1,-1.874224842E-1,4.139809310E-1,-3.988463897E-3,4.544483542E-1
1.250207838E1,-1.830200106E-1,4.373597503E-1,-5.198071711E-3,4.741380552E-1
1.251209838E1,-1.865580827E-1,4.041764736E-1,-6.274185609E-3,4.451987258E-1
1.252211938E1,-1.866955012E-1,3.307627141E-1,-5.373238586E-3,3.798526753E-1
1.253213938E1,-1.892430037E-1,2.312587202E-1,-8.632047102E-3,2.989448483E-1
1.254215938E1,-1.846210808E-1,1.359660178E-1,-1.372933667E-2,2.296958775E-1
1.255218038E1,-1.778447628E-1,5.877976492E-2,-1.476913504E-2,1.878881257E-1
1.256220038E1,-1.693245023E-1,3.099990077E-3,-1.673721150E-2,1.701779401E-1
1.257222038E1,-1.566772014E-1,-3.100135736E-2,-1.750724949E-2,1.606715077E-1
1.258224038E1,-1.492877305E-1,-3.697349504E-2,-1.505234838E-2,1.545329706E-1
1.259226138E1,-1.377668679E-1,-3.875284269E-2,-1.394181419E-2,1.437910529E-1
1.260228138E1,-1.246588007E-1,-4.098084569E-2,-1.177266985E-2,1.317491634E-1
1.261230138E1,-1.154364794E-1,-4.217178002E-2,-7.095427252E-3,1.231031474E-1
1.262232238E1,-1.068866700E-1,-4.441123083E-2,1.360109425E-3,1.157539094E-1
1.263234238E1,-9.542632848E-2,-5.658357590E-2,1.200651005E-2,1.115887159E-1
1.264236238E1,-9.269338846E-2,-8.048331738E-2,2.035738342E-2,1.244349296E-1
1.265238338E1,-8.676363528E-2,-1.087832302E-1,2.879020758E-2,1.420936157E-1
1.266240338E1,-8.411006629E-2,-1.556735039E-1,3.742071241E-2,1.808564425E-1
1.267242338E1,-8.103656769E-2,-2.079782933E-1,3.855306655E-2,2.265132109E-1
1.268244438E1,-7.839684188E-2,-2.677057981E-1,3.755304962E-2,2.814652567E-1
1.269246438E1,-7.295387238E-2,-3.161809146E-1,3.467284143E-2,3.263354780E-1
1.270248438E1,-6.527464837E-2,-3.424391747E-1,2.820828184E-2,3.497442998E-1
1.271250538E1,-5.624663457E-2,-3.399396241E-1,2.408134937E-2,3.454020025E-1
1.272252538E1,-4.483764991E-2,-3.146952689E-1,2.385498025E-2,3.187672931E-1
1.273254538E1,-3.633125499E-2,-2.772938311E-1,2.209512144E-2,2.805352442E-1
1.274256638E1,-3.233065456E-2,-2.363653034E-1,1.329097617E-2,2.389361377E-1
1.275258638E1,-2.924789675E-2,-2.043653429E-1,9.461346082E-3,2.066643411E-1
1.276260638E1,-2.866146527E-2,-1.640027314E-1,2.404768253E-3,1.665057309E-1
1.277262738E1,-3.216709197E-2,-1.200236827E-1,2.123128856E-3,1.242775679E-1
1.278264738E1,-3.937893361E-2,-1.191528291E-1,-4.932117648E-3,1.255883070E-1
1.279266738E1,-3.149584681E-2,-8.419533819E-2,-9.995493107E-3,9.044751639E-2
1.280268838E1,-2.765290625E-2,-3.933199495E-2,-1.471647900E-2,5.028184369E-2
1.281270838E1,-2.059085853E-2,-3.015771136E-2,-2.434811555E-2,4.388965414E-2
1.282272838E1,-1.787097193E-2,-3.399718925E-2,-3.263693675E-2,5.040188643E-2
1.283274938E1,-1.777024567E-2,-2.953796834E-2,-3.440982476E-2,4.870635733E-2
1.284276938E1,-1.995297335E-2,-2.545267902E-2,-4.122591764E-2,5.239786541E-2
1.285278938E1,-3.526490927E-2,-1.856621727E-2,-4.532635957E-2,6.035558898E-2
1.286281038E1,-4.184851050E-2,-9.336765856E-3,-4.231325909E-2,6.024022679E-2
1.287283038E1,-5.300884694E-2,1.271647122E-2,-4.463581368E-2,7.045567654E-2
1.288285038E1,-5.891840160E-2,4.558094591E-2,-4.547097906E-2,8.727319528E-2
1.289287138E1,-6.093178689E-2,8.917200565E-2,-4.670152441E-2,1.176663148E-1
1.290289138E1,-5.946704745E-2,1.410144269E-1,-4.936867952E-2,1.608062961E-1
1.291291200E1,-5.349298567E-2,1.817403138E-1,-5.823059380E-2,1.981964763E-1
1.292293300E1,-5.025751144E-2,2.063322067E-1,-6.446877867E-2,2.219347211E-1
1.293295300E1,-4.710534960E-2,2.148136646E-1,-7.075291872E-2,2.310190467E-1
1.294297300E1,-3.831239045E-2,2.004536390E-1,-7.492130250E-2,2.173998671E-1
1.295299400E1,-3.848326579E-2,1.742149740E-1,-7.853192091E-2,1.949335311E-1
1.296301400E1,-3.443766013E-2,1.453034282E-1,-7.735799998E-2,1.681763920E-1
1.297303400E1,-3.459624201E-2,1.203335896E-1,-7.215236127E-2,1.445096398E-1
1.298305500E1,-2.661048807E-2,1.051857919E-1,-7.041838020E-2,1.293480466E-1
1.299307500E1,-2.414980717E-2,9.178642929E-2,-6.583926082E-2,1.155109088E-1
1.300309500E1,-2.060300857E-2,6.934983283E-2,-6.480436027E-2,9.712614677E-2
1.301311600E1,-1.731090806E-2,4.338708147E-2,-6.312160939E-2,7.852670851E-2
1.302313600E1,-1.193611696E-2,2.413189225E-2,-6.618344784E-2,7.144975773E-2
1.303315600E1,-1.042745914E-2,5.841653794E-3,-6.264591962E-2,6.377592076E-2
1.304317600E1,-1.288555656E-2,-6.381989457E-3,-6.077531353E-2,6.245323123E-2
1.305319700E1,-1.491478737E-2,-1.417161152E-2,-5.715677887E-2,6.074687503E-2
1.306321700E1,-1.962272450E-2,-1.447947323E-2,-5.254391581E-2,5.792727812E-2
1.307323700E1,-2.406966686E-2,-6.971233524E-3,-4.510188848E-2,5.159580704E-2
1.308325800E1,-3.035791963E-2,-1.288047293E-3,-4.135934636E-2,5.132112510E-2
1.309327800E1,-3.717522696E-2,1.121631823E-3,-3.304154053E-2,4.974936138E-2
1.310329800E1,-4.359264672E-2,8.326536044E-5,-2.527016960E-2,5.038757042E-2
1.311331900E1,-5.210949481E-2,-1.780704595E-3,-1.618743874E-2,5.459490389E-2
1.312333900E1,-6.440477818E-2,1.151435543E-3,-9.293313138E-3,6.508200155E-2
1.313335900E1,-7.030689716E-2,1.846338972E-3,-5.214897916E-3,7.052420802E-2
1.314338000E1,-7.957735658E-2,1.655178145E-2,-2.124157618E-4,8.128076199E-2
1.315340000E1,-8.670647442E-2,4.426344484E-2,7.518642116E-3,9.764115544E-2
1.316342000E1,-9.263387322E-2,7.633642852E-2,1.784451678E-2,1.213536632E-1
1.317344100E1,-1.000478566E-1,9.119819850E-2,2.040137351E-2,1.369047152E-1
1.318346100E1,-1.046247631E-1,8.260870725E-2,2.570452541E-2,1.357617848E-1
1.319348100E1,-1.098698303E-1,5.478497595E-2,2.476442419E-2,1.252439616E-1
1.320350200E1,-1.168747395E-1,1.835639402E-2,2.934559435E-2,1.218926817E-1
1.321352200E1,-1.228187680E-1,-1.910979301E-2,2.925206907E-2,1.276922766E-1
1.322354200E1,-1.266555935E-1,-4.796034843E-2,3.281643987E-2,1.393511863E-1
1.323356300E1,-1.335511357E-1,-5.748135224E-2,3.495312482E-2,1.495383985E-1
1.324358300E1,-1.442000568E-1,-5.212946236E-2,3.546871245E-2,1.573822315E-1
1.325360300E1,-1.538077444E-1,-4.706859961E-2,3.890585899E-2,1.654869819E-1
1.326362400E1,-1.593053043E-1,-2.320054919E-2,3.930586576E-2,1.657148048E-1
1.327364400E1,-1.704324484E-1,1.837905124E-2,4.182439297E-2,1.764491112E-1
1.328366400E1,-1.735637933E-1,5.374609679E-2,3.737371787E-2,1.854988627E-1
1.329368500E1,-1.844473630E-1,9.450700879E-2,4.050520808E-2,2.111707279E-1
1.330370500E1,-1.906639785E-1,1.454386264E-1,3.744763508E-2,2.427086156E-1
1.331372500E1,-1.904619783E-1,1.853188872E-1,3.288425878E-2,2.677689856E-1
1.332374600E1,-1.911272407E-1,1.984456182E-1,3.342807665E-2,2.775386852E-1
1.333376600E1,-1.978143156E-1,1.930200011E-1,3.282513842E-2,2.783248353E-1
1.334378600E1,-2.024026662E-1,1.684949398E-1,3.166080639E-2,2.652542001E-1
1.335380700E1,-2.128043920E-1,1.253970414E-1,3.161928430E-2,2.490178837E-1
1.336382700E1,-2.238282710E-1,7.972489297E-2,3.114550747E-2,2.396355485E-1
1.337384700E1,-2.332347482E-1,4.031164199E-2,3.314444795E-2,2.390021563E-1
1.338386800E1,-2.386002243E-1,2.221865766E-2,3.127677366E-2,2.416650002E-1
1.339388800E1,-2.473826408E-1,1.195426472E-2,2.968544327E-2,2.494439836E-1
1.340390800E1,-2.531955242E-1,7.239937782E-3,3.302291781E-2,2.554425636E-1
1.341392900E1,-2.558537722E-1,2.171446336E-3,3.199822456E-2,2.578560728E-1
1.342394900E1,-2.549059689E-1,-1.655516215E-3,3.206560388E-2,2.569202146E-1
1.343396900E1,-2.546676993E-1,-5.947190803E-4,3.739972040E-2,2.573999415E-1
1.344398900E1,-2.506700158E-1,-2.879444975E-3,3.507611156E-2,2.531285871E-1
1.345401000E1,-2.453904748E-1,-1.088523027E-2,4.020258039E-2,2.489000218E-1
1.346403000E1,-2.425419688E-1,-2.710654400E-2,3.680997714E-2,2.468123696E-1
1.347405000E1,-2.483190596E-1,-5.427964032E-2,3.420537710E-2,2.564734734E-1
1.348407100E1,-2.466450036E-1,-8.399811387E-2,3.490712121E-2,2.628839060E-1
1.349409100E1,-2.505036592E-1,-1.069047749E-1,3.162482381E-2,2.741912538E-1
1.350411100E1,-2.489870042E-1,-1.078294292E-1,3.015475906E-2,2.730037061E-1
1.351413200E1,-2.406899929E-1,-8.443622291E-2,2.631995827E-2,2.564252106E-1
1.352415200E1,-2.375389338E-1,-4.591866210E-2,2.337636799E-2,2.430632082E-1
1.353417200E1,-2.349060476E-1,9.403923759E-4,1.985590532E-2,2.357456097E-1
1.354419300E1,-2.291823775E-1,5.082566291E-2,1.493624877E-2,2.352252148E-1
1.355421300E1,-2.272528112E-1,9.222222120E-2,1.235552318E-2,2.455635096E-1
1.356423300E1,-2.222218364E-1,1.104835197E-1,1.073738653E-2,2.484037926E-1
1.357425400E1,-2.202139199E-1,1.076886728E-1,7.879183628E-3,2.452612939E-1
1.358427400E1,-2.142692059E-1,8.534448594E-2,5.082332063E-3,2.306963458E-1
1.359429400E1,-2.047490180E-1,7.017731667E-2,-2.279850305E-4,2.164418354E-1
1.360431500E1,-1.963832229E-1,7.265565544E-2,-5.068546627E-3,2.094538247E-1
1.361433500E1,-1.853446960E-1,9.993467480E-2,-8.448630571E-3,2.107391158E-1
1.362435500E1,-1.754788756E-1,1.452387273E-1,-1.455472782E-2,2.282519744E-1
1.363437600E1,-1.676065177E-1,1.814367771E-1,-2.089239843E-2,2.478865490E-1
1.364439600E1,-1.691993624E-1,1.995183080E-1,-3.089229949E-2,2.634204124E-1
1.365441600E1,-1.667545587E-1,2.431296408E-1,-3.727284819E-2,2.971672430E-1
1.366443700E1,-1.669087559E-1,3.132258952E-1,-3.671198711E-2,3.568147477E-1
1.367445700E1,-1.653658897E-1,3.839712739E-1,-4.536631331E-2,4.205210090E-1
1.368447700E1,-1.607642174E-1,4.154831469E-1,-5.259466544E-2,4.485951156E-1
1.369449800E1,-1.562258452E-1,4.195871055E-1,-6.147575006E-2,4.519282262E-1
1.370451800E1,-1.534031630E-1,4.048204124E-1,-6.709235907E-2,4.380793094E-1
1.371453800E1,-1.509649903E-1,4.017306268E-1,-7.324854285E-2,4.353656783E-1
1.372455900E1,-1.465958059E-1,4.126043022E-1,-7.323655486E-2,4.439552156E-1
1.373457900E1,-1.413867176E-1,4.105619192E-1,-7.425333560E-2,4.405279234E-1
1.374459900E1,-1.405422240E-1,3.702403307E-1,-7.456252724E-2,4.029759170E-1
1.375462000E1,-1.401548833E-1,2.923867702E-1,-8.108549565E-2,3.342278748E-1
1.376464000E1,-1.367628127E-1,1.949547529E-1,-8.764593303E-2,2.537582160E-1
1.377466000E1,-1.410014033E-1,1.035201102E-1,-8.767981827E-2,1.956669607E-1
1.378468100E1,-1.489227116E-1,2.111099102E-2,-8.914775401E-2,1.748455605E-1
1.379470100E1,-1.518906951E-1,-5.331100523E-2,-8.175157756E-2,1.805440859E-1
1.380472100E1,-1.505244821E-1,-1.143021807E-1,-7.710435987E-2,2.041266532E-1
1.381474200E1,-1.470909864E-1,-1.415120065E-1,-8.215482533E-2,2.200245931E-1
1.382476200E1,-1.369925588E-1,-1.390472502E-1,-8.241049200E-2,2.118787109E-1
1.383478200E1,-1.163922846E-1,-1.180963740E-1,-8.865868300E-2,1.880273372E-1
1.384480200E1,-1.116158962E-1,-8.359032869E-2,-9.428115189E-2,1.683282120E-1
1.385482300E1,-9.917992353E-2,-3.568997607E-2,-9.392782301E-2,1.411838077E-1
1.386484300E1,-7.985788584E-2,-2.625233028E-3,-9.546127170E-2,1.244870603E-1
1.387486300E1,-5.584682524E-2,5.916063488E-2,-9.527618438E-2,1.252852741E-1
1.388488400E1,-3.623158485E-2,1.290371865E-1,-9.467430413E-2,1.640931050E-1
1.389490400E1,-6.779888645E-3,1.946005076E-1,-8.946354687E-2,2.142873087E-1
1.390492400E1,2.122404799E-2,2.646576166E-1,-8.463496715E-2,2.786704001E-1
1.391494425E1,5.522175133E-2,3.779762089E-1,-8.027831465E-2,3.903332732E-1
1.392496425E1,9.198588878E-2,5.085638165E-1,-7.717546821E-2,5.225462775E-1
1.393498425E1,1.425998509E-1,6.085921526E-1,-7.956057042E-2,6.301182508E-1
1.394500525E1,2.181161940E-1,6.532523036E-1,-9.329209477E-2,6.949940008E-1
1.395502525E1,2.995203137E-1,6.006963253E-1,-9.491882473E-2,6.779071300E-1
1.396504525E1,3.786614835E-1,4.647520781E-1,-7.454191148E-2,6.040989238E-1
1.397506625E1,4.792034328E-1,3.353326917E-1,-3.642015532E-2,5.860122625E-1
1.398508625E1,5.652581453E-1,2.117567062E-1,2.465727972E-3,6.036255075E-1
1.399510625E1,6.604112387E-1,1.735411286E-1,5.017245933E-2,6.846727709E-1
1.400512725E1,7.891066074E-1,2.521935999E-1,8.688333631E-2,8.329703259E-1
1.401514725E1,9.305844307E-1,3.604008555E-1,1.196272448E-1,1.005080513E0
1.402516725E1,1.085447431E0,4.174524248E-1,1.409208179E-1,1.171461194E0
1.403518825E1,1.248108149E0,4.002934396E-1,1.637843400E-1,1.320921685E0
1.404520825E1,1.420505166E0,2.955563664E-1,1.824365854E-1,1.462351394E0
1.405522825E1,1.591037989E0,1.184836552E-1,2.044336200E-1,1.608487912E0
1.406524925E1,1.763225436E0,-3.665399924E-2,2.223905176E-1,1.777572782E0
1.407526925E1,1.938235164E0,-8.012129366E-2,2.497283816E-1,1.955898575E0
1.408528925E1,2.114175081E0,1.458151452E-2,2.843207121E-1,2.133257406E0
1.409531025E1,2.289359808E0,2.082557231E-1,3.161242902E-1,2.320446798E0
1.410533025E1,2.464119434E0,4.223504066E-1,3.460084200E-1,2.523883175E0
1.411535025E1,2.649439573E0,6.104369164E-1,3.765977323E-1,2.744811311E0
1.412537125E1,2.845035791E0,7.324675322E-1,4.124843776E-1,2.966627833E0
1.413539125E1,3.082706213E0,7.526298165E-1,4.472340643E-1,3.204613478E0
1.414541125E1,3.334902048E0,7.198236585E-1,4.899618030E-1,3.446705723E0
1.415543225E1,3.605963707E0,7.335304618E-1,5.287023187E-1,3.717602364E0
1.416545225E1,3.901858091E0,8.710542917E-1,5.837325454E-1,4.040294028E0
1.417547225E1,4.202310562E0,1.075571775E0,6.445723772E-1,4.385401037E0
1.418549225E1,4.509040356E0,1.304767132E0,7.224818468E-1,4.749299129E0
1.419551325E1,4.806465626E0,1.450864792E0,8.161478639E-1,5.086572303E0
1.420553325E1,5.096319675E0,1.462732077E0,9.231147766E-1,5.381839858E0
1.421555325E1,5.371096611E0,1.244632244E0,1.031412125E0,5.609064022E0
1.422557425E1,5.640022278E0,8.068600297E-1,1.134748101E0,5.809348299E0
1.423559425E1,5.880085945E0,1.545366943E-1,1.231787801E0,6.009708271E0
1.424561425E1,6.107725620E0,-5.591523647E-1,1.321416497E0,6.274002325E0
1.425563525E1,6.240582466E0,-1.652160525E0,1.256065488E0,6.576640816E0
1.426565525E1,6.315560818E0,-2.376249313E0,1.259781361E0,6.864394971E0
1.427567525E1,6.338774204E0,-2.966681480E0,1.174552202E0,7.096536500E0
1.428569625E1,6.432374477E0,-3.088889360E0,9.935044646E-1,7.204424336E0
1.429571625E1,6.562773228E0,-3.279992342E0,8.474135995E-1,7.385556987E0
1.430573625E1,6.544815540E0,-3.242876053E0,6.528257132E-1,7.333282823E0
1.431575725E1,6.568864346E0,-3.210844278E0,4.648838043E-1,7.326364496E0
1.432577725E1,6.547360897E0,-3.154601336E0,2.829294503E-1,7.273203790E0
1.433579725E1,6.546242237E0,-3.130750179E0,1.005847231E-1,7.257065619E0
1.434581825E1,6.536771774E0,-3.120746136E0,-8.084525168E-2,7.243961460E0
1.435583825E1,6.514818668E0,-3.113817930E0,-2.628894746E-1,7.225498963E0
1.436585825E1,6.500497341E0,-3.122731686E0,-4.416403174E-1,7.225161938E0
1.437587925E1,6.476650715E0,-3.144572735E0,-6.237263680E-1,7.226643533E0
1.438589925E1,6.442038059E0,-3.176071882E0,-8.028599024E-1,7.227162028E0
1.439591925E1,6.408880711E0,-3.223476171E0,-9.871459007E-1,7.241478276E0
1.440594025E1,6.368279457E0,-3.279473782E0,-1.167092800E0,7.257550353E0
1.441596025E1,6.316833496E0,-3.349126577E0,-1.354259729E0,7.276884887E0
1.442598025E1,6.264839649E0,-3.431687117E0,-1.541709781E0,7.307637193E0
1.443600125E1,6.202633381E0,-3.520209312E0,-1.733093381E0,7.339492294E0
1.444602125E1,6.132423878E0,-3.619272470E0,-1.924708247E0,7.376330908E0
1.445604125E1,6.052601337E0,-3.732011318E0,-2.120375633E0,7.420100017E0
1.446606225E1,5.964334965E0,-3.849448204E0,-2.320659161E0,7.468400229E0
1.447608225E1,5.865001678E0,-3.980201483E0,-2.521184206E0,7.523072400E0
1.448610225E1,5.750776291E0,-4.121829510E0,-2.725092411E0,7.582020516E0
1.449612325E1,5.626315594E0,-4.269234657E0,-2.933706522E0,7.647772596E0
1.450614325E1,5.488732338E0,-4.425960541E0,-3.146395445E0,7.721082416E0
1.451616325E1,5.334537029E0,-4.589117527E0,-3.357189655E0,7.796666427E0
1.452618325E1,5.169214725E0,-4.761673450E0,-3.566186666E0,7.881116816E0
1.453620425E1,4.984509468E0,-4.934831619E0,-3.777623653E0,7.966701840E0
1.454622425E1,4.789337635E0,-5.118254185E0,-3.989807606E0,8.065534428E0
1.455624425E1,4.572303295E0,-5.298050404E0,-4.196133614E0,8.159830440E0
1.456626525E1,4.336099148E0,-5.479018688E0,-4.401610851E0,8.258061497E0
1.457628525E1,4.077468395E0,-5.658102989E0,-4.601898670E0,8.355677670E0
1.458630525E1,3.805860043E0,-5.831391811E0,-4.791699886E0,8.452815444E0
1.459632625E1,3.509876490E0,-6.002003193E0,-4.974525928E0,8.549221223E0
1.460634625E1,3.198863029E0,-6.162397861E0,-5.144196033E0,8.641216634E0
1.461636625E1,2.869889021E0,-6.314291477E0,-5.299633026E0,8.728840133E0
1.462638725E1,2.521955252E0,-6.450059414E0,-5.440563679E0,8.807000504E0
1.463640725E1,2.165491343E0,-6.569530964E0,-5.559449196E0,8.874433233E0
1.464642725E1,1.791778564E0,-6.665796757E0,-5.660812855E0,8.926820207E0
1.465644825E1,1.409146070E0,-6.741252899E0,-5.741274357E0,8.966181715E0
1.466646825E1,1.011319876E0,-6.799526691E0,-5.800593853E0,8.994621736E0
1.467648825E1,6.189144254E-1,-6.835780621E0,-5.835964680E0,9.009408166E0
1.468650925E1,2.178668678E-1,-6.853869915E0,-5.847121239E0,9.011760403E0
1.469652925E1,-1.790022999E-1,-6.847185135E0,-5.835067272E0,8.997999565E0
1.470654925E1,-5.744955540E-1,-6.811557770E0,-5.796707630E0,8.962654949E0
1.471657025E1,-9.627115130E-1,-6.757777691E0,-5.736713409E0,8.916515772E0
1.472659025E1,-1.341645837E0,-6.683984756E0,-5.658442974E0,8.859663801E0
1.473661025E1,-1.711637497E0,-6.593232632E0,-5.554851055E0,8.789584160E0
1.474663125E1,-2.063106775E0,-6.488278389E0,-5.435303211E0,8.711870466E0
1.475665125E1,-2.405795574E0,-6.370796680E0,-5.296528816E0,8.627173360E0
1.476667125E1,-2.725533962E0,-6.243283749E0,-5.143496037E0,8.535963849E0
1.477669225E1,-3.026713133E0,-6.097395420E0,-4.977939606E0,8.433214453E0
1.478671225E1,-3.311712265E0,-5.939543724E0,-4.800454617E0,8.324060446E0
1.479673225E1,-3.574827433E0,-5.771047592E0,-4.614071846E0,8.208169131E0
1.480675325E1,-3.813135386E0,-5.604568958E0,-4.417721272E0,8.091196198E0
1.481677325E1,-4.035755634E0,-5.426103115E0,-4.222224236E0,7.972270445E0
1.482679325E1,-4.237806797E0,-5.249636173E0,-4.020302296E0,7.853694478E0
1.483681425E1,-4.418399334E0,-5.074308872E0,-3.817629576E0,7.735965278E0
1.484683425E1,-4.585314274E0,-4.898195267E0,-3.614028692E0,7.620933489E0
1.485685425E1,-4.732012272E0,-4.730677605E0,-3.412174702E0,7.510937820E0
1.486687425E1,-4.860428333E0,-4.567669868E0,-3.212026119E0,7.403005025E0
1.487689525E1,-4.983294964E0,-4.410289288E0,-3.014376879E0,7.305501233E0
1.488691525E1,-5.085295200E0,-4.262229919E0,-2.819339275E0,7.209403936E0
1.489693525E1,-5.172293186E0,-4.116288185E0,-2.629193068E0,7.114007409E0
1.490695625E1,-5.251741409E0,-3.973181963E0,-2.441039324E0,7.023221178E0
1.491697588E1,-5.316342354E0,-3.839118004E0,-2.258337259E0,6.935590115E0
1.492699588E1,-5.376358509E0,-3.717651367E0,-2.084020376E0,6.860707211E0
1.493701688E1,-5.419622421E0,-3.600930691E0,-1.909074306E0,6.781118915E0
1.494703688E1,-5.461769581E0,-3.491646767E0,-1.742656589E0,6.712628106E0
1.495705688E1,-5.493382454E0,-3.390453339E0,-1.578243494E0,6.645545663E0
1.496707788E1,-5.519299507E0,-3.294270039E0,-1.415858626E0,6.581757956E0
1.497709788E1,-5.540965557E0,-3.212610960E0,-1.258996367E0,6.527498781E0
1.498711788E1,-5.556401253E0,-3.135358334E0,-1.108584523E0,6.475571512E0
1.499713888E1,-5.565429211E0,-3.066483736E0,-9.621527791E-1,6.426745893E0
1.500715888E1,-5.568384647E0,-3.003987312E0,-8.161327243E-1,6.379413764E0
1.501717888E1,-5.571695328E0,-2.950242043E0,-6.766560078E-1,6.340787040E0
1.502719988E1,-5.566918850E0,-2.901523829E0,-5.374805331E-1,6.300659595E0
1.503721988E1,-5.559806824E0,-2.861227512E0,-3.988924623E-1,6.265555841E0
1.504723988E1,-5.551580429E0,-2.829680920E0,-2.655908465E-1,6.236800291E0
1.505726088E1,-5.540191650E0,-2.802298307E0,-1.360135823E-1,6.210080436E0
1.506728088E1,-5.528050900E0,-2.778530359E0,-4.245171323E-3,6.187050648E0
1.507730088E1,-5.509905815E0,-2.769780874E0,1.219340041E-1,6.168112846E0
1.508732188E1,-5.491983414E0,-2.770488977E0,2.470751405E-1,6.156178775E0
1.509734188E1,-5.468021870E0,-2.780603647E0,3.723522425E-1,6.145703052E0
1.510736188E1,-5.439754486E0,-2.791959763E0,5.020660162E-1,6.134984798E0
1.511738288E1,-5.413322449E0,-2.817730188E0,6.266816854E-1,6.134850714E0
1.512740288E1,-5.378819466E0,-2.849358797E0,7.531195283E-1,6.133329717E0
1.513742288E1,-4.619945526E0,-5.274219036E0,1.302914619E0,7.131540479E0
1.514744388E1,-3.064049006E0,-4.052939892E0,3.875917494E-1,5.095580972E0
1.515746388E1,-5.743498802E0,3.146483600E-1,2.096262693E0,6.122180932E0
1.516748388E1,-5.557112217E0,-2.348074198E0,1.409186840E0,6.195220430E0
1.517750388E1,-4.691164017E0,-6.700963378E-1,1.072804809E0,4.858699321E0
1.518752488E1,-5.786656857E0,-2.079343051E-1,1.258998394E0,5.925682341E0
1.519754488E1,-5.340526104E0,-7.799794078E-1,1.276379704E0,5.546055544E0
1.520756488E1,-5.528357506E0,-1.388901114E0,1.295820475E0,5.845590964E0
1.521758588E1,-5.615069866E0,-8.932420015E-1,1.345121384E0,5.842622905E0
1.522760588E1,-5.358573437E0,-1.028035522E0,1.392239094E0,5.631118539E0
1.523762588E1,-5.288702965E0,-1.210640907E0,1.424010277E0,5.609263385E0
1.524764688E1,-5.472508907E0,-1.094397545E0,1.476082206E0,5.772770427E0
1.525766688E1,-5.413137436E0,-1.126708865E0,1.536617160E0,5.738703866E0
1.526768688E1,-5.246428967E0,-1.296882510E0,1.581763268E0,5.631065279E0
1.527770788E1,-5.280755997E0,-1.379428387E0,1.635938406E0,5.697850563E0
1.528772788E1,-5.337125301E0,-1.413198590E0,1.708734870E0,5.779430041E0
1.529774788E1,-5.238835812E0,-1.520669222E0,1.778663158E0,5.737724128E0
1.530776888E1,-5.158470154E0,-1.639839888E0,1.837637305E0,5.716275015E0
1.531778888E1,-5.173780441E0,-1.703632951E0,1.910860062E0,5.772499932E0
1.532780888E1,-5.153563499E0,-1.770356059E0,1.990192413E0,5.801227729E0
1.533782988E1,-5.066811085E0,-1.886101127E0,2.077135801E0,5.791756656E0
1.534784988E1,-5.006221771E0,-2.009941816E0,2.151101351E0,5.807698300E0
1.535786988E1,-4.986097813E0,-2.081350803E0,2.233589172E0,5.846547114E0
1.536789088E1,-4.939249039E0,-2.172353506E0,2.336182594E0,5.879885197E0
1.537791088E1,-4.854659557E0,-2.300368547E0,2.432511330E0,5.897162558E0
1.538793088E1,-4.780871391E0,-2.417233229E0,2.519871235E0,5.920261716E0
1.539795188E1,-4.735911369E0,-2.511689901E0,2.616224527E0,5.965071117E0
1.540797188E1,-4.662530422E0,-2.616972923E0,2.725962639E0,6.001550594E0
1.541799188E1,-4.168857574E0,-1.924488544E0,2.792734146E0,5.374234238E0
1.542801288E1,7.626005173E0,-1.034102249E1,2.608801126E-1,1.285148861E1
1.543803288E1,-7.481405735E-1,1.342865467E1,-4.361336231E0,1.413894389E1
1.544805288E1,9.310056686E0,-2.959254265E0,-3.576043606E0,1.040300097E1
1.545807388E1,-8.740857840E-1,1.513669586E1,-2.652456760E0,1.539217705E1
1.546809388E1,3.849487305E0,1.438446522E1,-1.785012007E0,1.499725508E1
1.547811388E1,4.849685669E0,1.601964760E1,-1.521671265E-1,1.673833071E1
1.548813488E1,1.967587709E0,1.559521770E1,1.404162794E-1,1.571947624E1
1.549815488E1,3.157486916E-1,1.536193657E1,-2.311935276E-1,1.536692041E1
1.550817488E1,3.189687133E-1,1.278380394E1,1.512331963E-1,1.278867685E1
1.551819488E1,-1.179520845E0,9.743313789E0,1.323062032E-1,9.815341968E0
1.552821588E1,-1.880815029E0,6.889913082E0,-2.860148847E-1,7.147738941E0
1.553823588E1,-2.144762754E0,3.182150126E0,-4.253642559E-1,3.860961207E0
1.554825588E1,-2.352465868E0,1.351533413E0,-5.158302188E-1,2.761669611E0
1.555827688E1,-2.262524843E0,5.046521425E-1,-7.161301374E-1,2.426218215E0
1.556829688E1,-2.051510096E0,-5.244217515E-1,-9.763915539E-1,2.331748767E0
1.557831688E1,-1.875635982E0,-1.194200993E0,-9.893217683E-1,2.433697579E0
1.558833788E1,-1.721390724E0,-1.612258434E0,-8.389026523E-1,2.503262061E0
1.559835788E1,-1.417356610E0,-2.129183531E0,-6.614077687E-1,2.641927801E0
1.560837788E1,-1.093577266E0,-2.510489702E0,-3.958890438E-1,2.766802833E0
1.561839888E1,-2.185646743E-1,-1.695871830E0,-4.684773460E-2,1.710539824E0
1.562841888E1,5.155138373E-1,-2.030825853E0,4.399749041E-1,2.140931124E0
1.563843888E1,5.471624732E-1,-2.219246626E0,7.689262629E-1,2.411574166E0
1.564845988E1,4.972715676E-1,-2.613938808E0,7.722581625E-1,2.770620468E0
1.565847988E1,5.229113102E-1,-2.805933952E0,6.683763266E-1,2.931455014E0
1.566849988E1,6.028703451E-1,-2.755819559E0,6.470478177E-1,2.894246875E0
1.567852088E1,8.050333858E-1,-2.612050056E0,6.737883687E-1,2.815115453E0
1.568854088E1,1.042830467E0,-2.452825308E0,6.646776795E-1,2.746933525E0
1.569856088E1,1.196942687E0,-2.334480524E0,6.771982908E-1,2.709440650E0
1.570858188E1,1.390057206E0,-2.634399652E0,6.498074532E-1,3.048699771E0
1.571860188E1,1.152184367E0,-2.214734554E0,8.798627853E-1,2.647024081E0
1.572862188E1,8.985872269E-1,1.018548012E0,5.855472684E-1,1.479109415E0
1.573864288E1,6.863030195E-1,1.939606905E0,3.871661425E-1,2.093557834E0
1.574866288E1,2.147722095E-1,2.286277294E0,3.265461922E-1,2.319444628E0
1.575868288E1,8.640861511E-2,2.403559923E0,2.408846021E-1,2.417145454E0
1.576870388E1,5.552500486E-2,1.919478655E0,1.545339972E-1,1.926489577E0
1.577872388E1,-1.834960841E-2,1.063669324E0,9.294541925E-2,1.067880138E0
1.578874388E1,-1.199579984E-1,1.946804523E-1,5.861567333E-2,2.360639682E-1
1.579876388E1,-1.653587371E-1,-2.358237952E-1,2.977464907E-2,2.895563918E-1
1.580878488E1,-1.890728474E-1,-4.499233067E-1,1.090189256E-2,4.881581453E-1
1.581880488E1,-2.083421052E-1,-5.443694592E-1,-4.450446926E-3,5.828930839E-1
1.582882488E1,-1.847813725E-1,-5.025490522E-1,-1.366524957E-2,5.356178158E-1
1.583884588E1,-1.607841849E-1,-4.646956027E-1,-6.095341407E-3,4.917628600E-1
1.584886588E1,-1.260240823E-1,-4.022862911E-1,8.883873932E-3,4.216577434E-1
1.585888588E1,-7.521141320E-2,-2.699890137E-1,1.225696225E-2,2.805370872E-1
1.586890688E1,-2.031726949E-2,-9.510667622E-2,9.205245413E-3,9.768729623E-2
1.587892688E1,2.384533733E-2,7.069345564E-2,2.219217597E-3,7.463973278E-2
1.588894688E1,5.090438575E-2,1.687331945E-1,1.608604507E-4,1.762446404E-1
1.589896788E1,6.372722983E-2,1.796580255E-1,-3.595838323E-3,1.906596339E-1
1.590898788E1,5.846429244E-2,1.404469758E-1,7.046342362E-4,1.521312690E-1
1.591900813E1,3.930777311E-2,6.633043289E-2,1.421429450E-3,7.711580782E-2
1.592902913E1,1.006599609E-2,-1.394949481E-2,4.204432480E-3,1.770847072E-2
1.593904913E1,-1.746359281E-2,-5.805612355E-2,-2.534885425E-6,6.062582422E-2
1.594906913E1,-3.422073275E-2,-4.842400178E-2,-2.302707173E-3,5.934007886E-2
1.595909013E1,-3.012440354E-2,-2.111963741E-2,1.655584492E-4,3.679057192E-2
1.596911013E1,-9.975194000E-3,1.420826651E-3,2.723790938E-3,1.043754189E-2
1.597913013E1,9.344380349E-3,1.409638766E-2,2.607386792E-3,1.711210259E-2
1.598915113E1,1.868887991E-2,5.502633285E-3,1.599646755E-3,1.954768720E-2
1.599917113E1,1.544081606E-2,5.720370682E-4,-8.966004825E-4,1.547740028E-2
1.600919113E1,2.876022365E-3,1.445021247E-3,2.453630150E-4,3.227970579E-3
1.601921213E1,-8.634719998E-3,3.746686038E-3,2.083444502E-3,9.640372747E-3
1.602923213E1,-1.081584767E-2,-9.580543265E-4,1.496483572E-3,1.096083445E-2
1.603925213E1,-4.625516012E-3,-6.408539601E-3,6.263570394E-4,7.928247053E-3
1.604927313E1,3.445726819E-3,-4.707046784E-3,5.368748098E-4,5.858118922E-3
1.605929313E1,8.349754848E-3,2.203790471E-3,-1.701538102E-3,8.801723148E-3
1.606931313E1,7.917789742E-3,6.975109689E-3,-6.289518205E-5,1.055213274E-2
1.607933313E1,-2.493225038E-4,3.181094769E-3,-1.475004246E-4,3.194257663E-3
