"Time (s)","Gyroscope x (rad/s)","Gyroscope y (rad/s)","Gyroscope z (rad/s)","Absolute (rad/s)"
3.861833335E-3,-6.044403911E-1,4.704138041E-1,5.598682538E-2,7.679660526E-1
1.389583334E-2,-7.423388958E-1,9.100283980E-1,1.971197277E-1,1.190829504E0
2.393083333E-2,-8.157978058E-1,1.217933297E0,3.085097373E-1,1.498020639E0
3.396483333E-2,-8.192458153E-1,1.260292768E0,3.776611090E-1,1.549880473E0
4.399883334E-2,-7.670087218E-1,1.054213405E0,4.212823212E-1,1.370090171E0
5.403383335E-2,-6.680212021E-1,7.320733666E-1,3.803644478E-1,1.061537024E0
6.406783333E-2,-5.477810502E-1,4.387458265E-1,2.913255990E-1,7.598898498E-1
7.410183334E-2,-4.426128268E-1,2.411688268E-1,1.301921159E-1,5.205943762E-1
8.413683335E-2,-3.730280101E-1,1.544238329E-1,-8.049491793E-2,4.116746875E-1
9.417083333E-2,-3.406865895E-1,2.579517961E-1,-2.269269675E-1,4.838412239E-1
1.042058333E-1,-3.468610644E-1,4.349596500E-1,-3.133834898E-1,6.385230668E-1
1.142398333E-1,-3.750333190E-1,6.205404401E-1,-3.176259100E-1,7.915848956E-1
1.242738334E-1,-4.106356502E-1,7.521708608E-1,-2.622908652E-1,8.962026216E-1
1.343088333E-1,-4.593382180E-1,8.151783347E-1,-2.096606642E-1,9.588873291E-1
1.443428333E-1,-5.209586024E-1,8.205572963E-1,-1.717670560E-1,9.870238414E-1
1.543768334E-1,-5.826342106E-1,8.200598359E-1,-1.711582690E-1,1.020419478E0
1.644118333E-1,-6.342596412E-1,7.948325872E-1,-1.948827952E-1,1.035385647E0
1.744458333E-1,-6.597290635E-1,6.816908121E-1,-2.380747348E-1,9.780717662E-1
1.844808333E-1,-6.615528464E-1,4.721172452E-1,-2.977091670E-1,8.655504664E-1
1.945148333E-1,-6.580838561E-1,2.073244601E-1,-3.540526032E-1,7.755069563E-1
2.045488333E-1,-6.630203724E-1,-5.600447580E-2,-3.847359717E-1,7.686054146E-1
2.145838334E-1,-6.670331955E-1,-1.994668394E-1,-3.975076973E-1,8.017061016E-1
2.246178333E-1,-6.894192100E-1,-2.271892279E-1,-4.064626098E-1,8.319408906E-1
2.346518333E-1,-7.274744511E-1,-1.444014013E-1,-4.125942588E-1,8.487077613E-1
2.446868333E-1,-7.709124684E-1,2.195088379E-2,-4.147346318E-1,8.756669973E-1
2.547208333E-1,-8.042773008E-1,2.047409415E-1,-4.222034812E-1,9.311480061E-1
2.647558333E-1,-8.343735337E-1,3.726785183E-1,-4.438193440E-1,1.015895704E0
2.747898333E-1,-8.476166725E-1,4.708839059E-1,-4.579434097E-1,1.072332897E0
2.848238334E-1,-8.711552024E-1,5.153607130E-1,-4.529224932E-1,1.108894421E0
2.948588333E-1,-8.942807317E-1,5.022097230E-1,-4.331554472E-1,1.113362598E0
3.048928333E-1,-9.380089641E-1,4.314962626E-1,-4.177159667E-1,1.113793729E0
3.149278333E-1,-1.010526657E0,3.148577809E-1,-4.083458781E-1,1.134480455E0
3.249618333E-1,-1.110651731E0,1.443031281E-1,-4.136777520E-1,1.193943024E0
3.349958333E-1,-1.230311871E0,-6.299173832E-2,-4.057252705E-1,1.297015132E0
3.450308333E-1,-1.371070623E0,-1.650858074E-1,-3.715098202E-1,1.430072559E0
3.550648333E-1,-1.534953475E0,-1.739954203E-1,-3.205097616E-1,1.577682821E0
3.650988333E-1,-1.697279096E0,-6.832214445E-2,-2.500463128E-1,1.716958766E0
3.751338334E-1,-1.874983311E0,2.229073048E-1,-1.529189348E-1,1.894369099E0
3.851678333E-1,-2.062642813E0,6.115649939E-1,-3.452126309E-2,2.151673496E0
3.952028333E-1,-2.242116451E0,1.019193649E0,6.539494544E-2,2.463761022E0
4.052364583E-1,-2.370741844E0,1.390640616E0,1.149381399E-1,2.750910575E0
4.152704584E-1,-2.416905880E0,1.617881060E0,1.457501054E-1,2.912081086E0
4.253054583E-1,-2.445965767E0,1.626863360E0,1.814738959E-1,2.943189715E0
4.353394583E-1,-2.492965221E0,1.435591340E0,2.494180650E-1,2.887560815E0
4.453734584E-1,-2.476559401E0,9.341697097E-1,2.633017004E-1,2.659952499E0
4.554084583E-1,-2.402403355E0,3.175331354E-1,2.200682163E-1,2.433269239E0
4.654424583E-1,-2.386473417E0,3.829462454E-2,1.870179176E-1,2.394096396E0
4.754774583E-1,-2.464917660E0,4.655601457E-2,1.238554716E-1,2.468466469E0
4.855114583E-1,-2.590659380E0,1.453226507E-1,5.789930001E-2,2.595378012E0
4.955454583E-1,-2.707526207E0,2.137179524E-1,-3.181034699E-2,2.716134279E0
5.055804584E-1,-2.786684036E0,2.201120406E-1,-1.322764605E-1,2.798491431E0
5.156144583E-1,-2.830699921E0,2.091976106E-1,-2.217147350E-1,2.847065701E0
5.256494583E-1,-2.825859308E0,2.013093978E-1,-2.599583864E-1,2.844922612E0
5.356834584E-1,-2.750359535E0,1.657929569E-1,-2.792263627E-1,2.769464251E0
5.457174583E-1,-2.643355846E0,1.187419146E-1,-3.389644325E-1,2.667644403E0
5.557524583E-1,-2.530462265E0,2.427266724E-2,-4.229978025E-1,2.565688130E0
5.657864583E-1,-2.420436621E0,-1.150689796E-1,-4.757526219E-1,2.469432093E0
5.758204584E-1,-2.472860575E0,-1.832419187E-1,-4.974376857E-1,2.529043549E0
5.858554583E-1,-2.735572815E0,-1.621292681E-1,-4.629908502E-1,2.779209429E0
5.958894583E-1,-3.091565371E0,-3.511990607E-2,-3.982011974E-1,3.117302366E0
6.059244583E-1,-3.424631834E0,1.746221483E-1,-3.470243514E-1,3.446595711E0
6.159584583E-1,-3.729374886E0,3.429003656E-1,-3.021458387E-1,3.757274252E0
6.259924583E-1,-4.040082932E0,2.683418393E-1,-3.079121709E-1,4.060675725E0
6.360274583E-1,-4.331990242E0,4.286183789E-2,-3.640342951E-1,4.347470249E0
6.460614583E-1,-4.580185413E0,-7.974262536E-2,-4.089294374E-1,4.599095628E0
6.560964583E-1,-4.788924694E0,-1.090887934E-1,-4.289638698E-1,4.809335723E0
6.661304584E-1,-4.900240898E0,-1.088523045E-1,-4.171705544E-1,4.919170759E0
6.761644583E-1,-4.920733452E0,-2.098630667E-1,-3.750215173E-1,4.939463670E0
6.861994583E-1,-4.846178532E0,-3.417809606E-1,-3.214666247E-1,4.868839839E0
6.962334584E-1,-4.682065964E0,-3.838703632E-1,-2.949926853E-1,4.707028662E0
7.062674583E-1,-4.517960548E0,-2.942579985E-1,-3.081012070E-1,4.538004147E0
7.163024583E-1,-4.369169712E0,-8.631996810E-2,-3.135580122E-1,4.381257095E0
7.263364583E-1,-4.224523544E0,1.329738647E-1,-3.025967181E-1,4.237433893E0
7.363714583E-1,-4.021382809E0,2.387040257E-1,-2.586867809E-1,4.036758372E0
7.464054583E-1,-3.806417704E0,2.995366454E-1,-1.328288019E-1,3.820494919E0
7.564394583E-1,-3.625568151E0,2.138878107E-1,2.055010386E-2,3.631929890E0
7.664744583E-1,-3.463075638E0,9.331470355E-4,1.320912540E-1,3.465594010E0
7.765084583E-1,-3.301959038E0,-1.121092513E-1,1.987672150E-1,3.309835400E0
7.865434584E-1,-3.147205830E0,-1.790937036E-1,2.585077286E-1,3.162879279E0
7.965774583E-1,-2.960650921E0,-1.926617026E-1,2.765631676E-1,2.979775091E0
8.066114583E-1,-2.709661961E0,-1.090086997E-1,1.790982038E-1,2.717761396E0
8.166464583E-1,-2.381358624E0,-3.808632493E-2,1.206394751E-2,2.381693725E0
8.266804584E-1,-2.030547142E0,6.418526173E-2,-1.406117380E-1,2.036421642E0
8.367144583E-1,-1.688175201E0,3.073379993E-1,-2.493704557E-1,1.733948610E0
8.467494583E-1,-1.379339457E0,6.300294399E-1,-3.192167580E-1,1.549649564E0
8.567834584E-1,-1.207647085E0,8.415291905E-1,-3.118858635E-1,1.504611462E0
8.668184583E-1,-1.183169246E0,1.018762112E0,-2.403367460E-1,1.579723854E0
8.768524583E-1,-1.227824092E0,1.085763216E0,-1.625705659E-1,1.647077093E0
8.868864583E-1,-1.323283315E0,9.567164779E-1,-7.540963590E-2,1.634647290E0
8.969214583E-1,-1.458002567E0,6.975999475E-1,7.237875462E-2,1.617917135E0
9.069554583E-1,-1.565209985E0,3.895764649E-1,2.257658988E-1,1.628687312E0
9.169904584E-1,-1.621133685E0,1.573078185E-1,3.177786469E-1,1.659458780E0
9.270244583E-1,-1.618023276E0,6.746282429E-2,3.520844579E-1,1.657261000E0
9.370584583E-1,-1.595437884E0,1.957867146E-1,3.550312221E-1,1.646147517E0
9.470934584E-1,-1.606625438E0,3.993294239E-1,3.859612942E-1,1.699904529E0
9.571274583E-1,-1.643469214E0,4.841074347E-1,4.254969954E-1,1.765332479E0
9.671614583E-1,-1.632379174E0,3.458306193E-1,4.763512015E-1,1.735272616E0
9.771964583E-1,-1.529048324E0,6.190780923E-2,5.528334379E-1,1.627097466E0
9.872304583E-1,-1.382717609E0,-1.978941709E-1,6.600737572E-1,1.544916650E0
9.972654583E-1,-1.254512668E0,-2.442920208E-1,7.699906230E-1,1.492101265E0
1.007299458E0,-1.143747091E0,-1.259200424E-1,8.481628895E-1,1.429473173E0
1.017333458E0,-1.028165102E0,1.077654678E-2,8.680335283E-1,1.345630639E0
1.027368458E0,-8.969231248E-1,1.677152216E-1,8.062269092E-1,1.217621171E0
1.037402458E0,-7.663315535E-1,3.195489645E-1,6.485400796E-1,1.053555801E0
1.047437458E0,-6.424478292E-1,4.212526381E-1,4.439972937E-1,8.873142596E-1
1.057471458E0,-5.113912225E-1,4.175090194E-1,2.409243584E-1,7.027654731E-1
1.067505458E0,-4.035094380E-1,3.857926428E-1,6.659393013E-2,5.622193356E-1
1.077540458E0,-3.301710188E-1,4.115528762E-1,-7.709905505E-2,5.332287838E-1
1.087574458E0,-2.715951204E-1,5.581143498E-1,-2.196078002E-1,6.583943521E-1
1.097609458E0,-2.276769578E-1,6.767528057E-1,-3.444035351E-1,7.927452000E-1
1.107643458E0,-2.546861470E-1,6.770888567E-1,-4.703339934E-1,8.628606021E-1
1.117677458E0,-3.743097484E-1,6.003011465E-1,-6.183740497E-1,9.396040227E-1
1.127712458E0,-5.775222182E-1,5.626890659E-1,-7.933503985E-1,1.131174501E0
1.137746458E0,-8.085535765E-1,5.089653730E-1,-9.510856867E-1,1.348098149E0
1.147780458E0,-1.073991299E0,3.370119035E-1,-1.036702394E0,1.530289576E0
1.157815458E0,-1.327726841E0,9.604884684E-2,-1.037269711E0,1.687605523E0
1.167849458E0,-1.553385496E0,-4.410582781E-2,-9.814844131E-1,1.838005298E0
1.177884458E0,-1.720137715E0,-1.421439797E-1,-8.389091492E-1,1.919074577E0
1.187918458E0,-1.796151280E0,-2.454857230E-1,-5.878525972E-1,1.905778932E0
1.197952458E0,-1.765552282E0,-3.345146477E-1,-2.885969281E-1,1.819989862E0
1.207987458E0,-1.651107430E0,-3.237542212E-1,-4.324120283E-2,1.683104971E0
1.218021458E0,-1.498985767E0,-2.269419134E-1,8.441875875E-2,1.518416112E0
1.228056458E0,-1.283847928E0,-6.168623269E-2,1.038683653E-1,1.289519031E0
1.238090458E0,-1.011796713E0,1.350462735E-1,9.678754956E-2,1.025347704E0
1.248124458E0,-7.027452588E-1,2.949174643E-1,1.046668515E-1,7.692739169E-1
1.258159458E0,-4.069271982E-1,3.492771089E-1,1.249556169E-1,5.506343157E-1
1.268193458E0,-1.908648759E-1,3.478230834E-1,1.163728461E-1,4.134645541E-1
1.278228458E0,-4.238272458E-2,3.160624802E-1,6.828361005E-2,3.261202817E-1
1.288262458E0,7.938891649E-2,2.599410713E-1,9.021797217E-3,2.719436585E-1
1.298296458E0,2.144724280E-1,1.524476260E-1,-2.291270159E-2,2.641281752E-1
1.308331458E0,3.555131853E-1,6.943050027E-2,-1.028452255E-2,3.623754830E-1
1.318365458E0,4.882448614E-1,8.357800543E-2,1.277365815E-2,4.955113460E-1
1.328399458E0,5.897482634E-1,2.279658616E-2,-7.077048533E-3,5.902311268E-1
1.338434458E0,7.222468853E-1,-1.467077583E-1,-3.073896654E-2,7.376371830E-1
1.348468458E0,9.278165698E-1,-2.351955920E-1,-2.888915874E-2,9.575986305E-1
1.358503458E0,1.165434718E0,-3.750222027E-1,5.937531125E-3,1.224301837E0
1.368537458E0,1.411695600E0,-5.222303271E-1,3.508389741E-2,1.505602823E0
1.378571458E0,1.608864903E0,-6.786963344E-1,5.566400662E-2,1.747047072E0
1.388606458E0,1.728175402E0,-8.405878544E-1,1.096888259E-1,1.924892152E0
1.398640833E0,1.791670799E0,-1.073961973E0,1.494498104E-1,2.094233468E0
1.408675833E0,1.913852215E0,-1.286660194E0,1.270574927E-1,2.309646805E0
1.418709833E0,2.168330908E0,-1.191867352E0,1.867562905E-2,2.474379819E0
1.428743833E0,2.507984877E0,-9.710032344E-1,-1.325402707E-1,2.692657116E0
1.438778833E0,2.881747961E0,-8.538795114E-1,-2.166721970E-1,3.013391507E0
1.448812833E0,3.282906294E0,-8.450641036E-1,-1.796190441E-1,3.394682618E0
1.458847833E0,3.749089718E0,-8.814337850E-1,-1.068758667E-1,3.852794010E0
1.468881833E0,4.362471581E0,-8.144280314E-1,-1.479575485E-1,4.440308857E0
1.478915833E0,5.107127666E0,-4.238350093E-1,-3.320413530E-1,5.135429931E0
1.488950833E0,5.822358131E0,1.461110711E-1,-3.731116056E-1,5.836130133E0
1.498984833E0,6.418486118E0,7.170291543E-1,-2.436276376E-1,6.463006211E0
1.509019833E0,6.712738037E0,1.098606229E0,-5.186300352E-2,6.802240614E0
1.519053833E0,6.640683174E0,1.306823611E0,1.294703037E-1,6.769285304E0
1.529087833E0,6.524890900E0,1.660929203E0,3.253162503E-1,6.740824707E0
1.539122833E0,6.629038811E0,2.425532341E0,5.782998204E-1,7.082499091E0
1.549156833E0,7.212689877E0,3.158831596E0,9.360811114E-1,7.929524586E0
1.559191833E0,8.258721352E0,3.239480495E0,1.403385758E0,8.981659303E0
1.569225833E0,9.546208382E0,3.020350456E0,1.738276005E0,1.016239218E1
1.579259833E0,1.073867321E1,2.634626150E0,1.819664955E0,1.120587069E1
1.589294833E0,1.198236084E1,2.176759958E0,1.663249969E0,1.229152780E1
1.599328833E0,1.380910587E1,2.232300997E0,1.272264957E0,1.404611088E1
1.609362833E0,1.645424271E1,2.938632727E0,4.115297794E-1,1.671965975E1
1.619397833E0,1.936803055E1,3.725191355E0,8.459984511E-2,1.972320499E1
1.629431833E0,1.966407394E1,2.990396023E0,4.014194012E-1,1.989420544E1
1.639466833E0,1.959719276E1,3.057472706E0,8.012211323E-1,1.985044228E1
1.649500833E0,1.952326012E1,3.217830658E0,1.216444254E0,1.982402220E1
1.659534833E0,1.942956352E1,3.466762304E0,1.648812652E0,1.980517515E1
1.669569833E0,1.931595612E1,3.808669090E0,2.114372015E0,1.980107800E1
1.679603833E0,1.919158363E1,4.250939846E0,2.619965076E0,1.983057208E1
1.689638833E0,1.904300880E1,4.800626755E0,3.173970222E0,1.989362432E1
1.699672833E0,1.885388565E1,5.457702637E0,3.793644905E0,1.999117965E1
1.709706833E0,1.862085724E1,6.216213226E0,4.478091240E0,2.013531555E1
1.719741833E0,1.831866074E1,7.090970039E0,5.243534088E0,2.033100679E1
1.729775833E0,1.791174698E1,8.087321281E0,6.091102600E0,2.057515434E1
1.739810833E0,1.736089897E1,9.189677238E0,7.022061348E0,2.086049679E1
1.749844833E0,1.661311150E1,1.037491512E1,8.031753540E0,2.116939778E1
1.759878833E0,1.565639496E1,1.162073898E1,9.098093033E0,2.151603064E1
1.769913833E0,1.444834232E1,1.290731430E1,1.019817638E1,2.189420380E1
1.779947833E0,1.297102165E1,1.420488453E1,1.129811001E1,2.230859558E1
1.789982833E0,1.119661140E1,1.546334267E1,1.234671783E1,2.273588605E1
1.800016833E0,9.118803978E0,1.660759354E1,1.328853130E1,2.314194921E1
1.810050833E0,6.757884502E0,1.756912613E1,1.405695343E1,2.349342750E1
1.820085833E0,4.170132637E0,1.826364899E1,1.459511757E1,2.374801755E1
1.830119833E0,1.440410376E0,1.863006592E1,1.485237980E1,2.386938047E1
1.840153833E0,-1.327751637E0,1.862677765E1,1.481196690E1,2.383514492E1
1.850188833E0,-4.027794838E0,1.824972725E1,1.447704887E1,2.364023308E1
1.860222833E0,-6.558438778E0,1.753095436E1,1.387579155E1,2.329989423E1
1.870257833E0,-8.842141151E0,1.654024506E1,1.307074642E1,2.286061195E1
1.880291833E0,-1.083949852E1,1.536704445E1,1.212168503E1,2.237355652E1
1.890325833E0,-1.253455067E1,1.407689571E1,1.109382725E1,2.187114438E1
1.900360833E0,-1.394007492E1,1.275470066E1,1.004494190E1,2.139880687E1
1.910394833E0,-1.507484531E1,1.144928932E1,9.016906738E0,2.096763683E1
1.920429833E0,-1.598540401E1,1.019889832E1,8.043927193E0,2.059746181E1
1.930463833E0,-1.669950676E1,9.036983490E0,7.142712593E0,2.028691548E1
1.940497833E0,-1.725303268E1,7.961371899E0,6.324583530E0,2.002625617E1
1.950532833E0,-1.767899513E1,6.990357399E0,5.592661381E0,1.981640297E1
1.960566833E0,-1.799462700E1,6.108937263E0,4.943781853E0,1.963585227E1
1.970601833E0,-1.823740959E1,5.320980072E0,4.374932289E0,1.949502424E1
1.980635833E0,-1.841772652E1,4.614264011E0,3.882169485E0,1.937976580E1
1.990669833E0,-1.855414391E1,3.979486704E0,3.459470034E0,1.928886994E1
2.000704833E0,-1.865904236E1,3.408052444E0,3.099593878E0,1.921931751E1
2.010738833E0,-1.873310471E1,2.890110970E0,2.797582626E0,1.916007364E1
2.020773833E0,-1.879134941E1,2.423087597E0,2.553280115E0,1.911819567E1
2.030807833E0,-1.883352470E1,1.994928956E0,2.353672266E0,1.908457931E1
2.040841833E0,-1.886023331E1,1.601493597E0,2.201908827E0,1.905574938E1
2.050876833E0,-1.887743378E1,1.227128148E0,2.094297171E0,1.903285134E1
2.060910833E0,-1.888986397E1,8.673971891E-1,2.025395155E0,1.901792744E1
2.070944833E0,-1.889130020E1,5.152871609E-1,1.995509744E0,1.900338926E1
2.080979833E0,-1.888529778E1,1.671835035E-1,2.007849216E0,1.899246906E1
2.091013833E0,-1.886922455E1,-1.861118227E-1,2.056497812E0,1.898187177E1
2.101048833E0,-1.885167885E1,-5.504043102E-1,2.144508600E0,1.898124489E1
2.111082833E0,-1.882117653E1,-9.338403344E-1,2.274531841E0,1.898110215E1
2.121116833E0,-1.877987480E1,-1.339829803E0,2.448817730E0,1.898619366E1
2.131151833E0,-1.872933578E1,-1.779513240E0,2.667822123E0,1.900189362E1
2.141185833E0,-1.865258598E1,-2.258079290E0,2.937678099E0,1.901704074E1
2.151220833E0,-1.855603409E1,-2.781890154E0,3.255614758E0,1.904374809E1
2.161254833E0,-1.842549324E1,-3.364022255E0,3.635818005E0,1.907969128E1
2.171288833E0,-1.826210594E1,-4.013066769E0,4.075832367E0,1.913691793E1
2.181323833E0,-1.805317497E1,-4.739756584E0,4.582300663E0,1.921925853E1
2.191357833E0,-1.777601051E1,-5.550792217E0,5.162529945E0,1.932484306E1
2.201392833E0,-1.742422676E1,-6.450802326E0,5.817725182E0,1.946952632E1
2.211426833E0,-1.697411919E1,-7.449110985E0,6.554478168E0,1.966141299E1
2.221460833E0,-1.639155579E1,-8.541728020E0,7.364465714E0,1.989672269E1
2.231495833E0,-1.565562916E1,-9.722418785E0,8.248845100E0,2.019078000E1
2.241529833E0,-1.473050404E1,-1.097313499E1,9.189276695E0,2.053874989E1
2.251564833E0,-1.358095074E1,-1.225507164E1,1.016329002E1,2.092657325E1
2.261598833E0,-1.218458557E1,-1.354361248E1,1.113753986E1,2.135271315E1
2.271632833E0,-1.052219486E1,-1.476923561E1,1.206889629E1,2.178313942E1
2.281667833E0,-8.583745003E0,-1.585971928E1,1.290515232E1,2.217553450E1
2.291701833E0,-6.398057938E0,-1.674759293E1,1.359313297E1,2.249867281E1
2.301736833E0,-4.011844635E0,-1.736337471E1,1.407651520E1,2.270968866E1
2.311770833E0,-1.501236439E0,-1.767508125E1,1.431487370E1,2.279424965E1
2.321804833E0,1.049040198E0,-1.765300179E1,1.429213810E1,2.273750577E1
2.331839833E0,3.543689966E0,-1.732189369E1,1.401461411E1,2.256136406E1
2.341873833E0,5.891479969E0,-1.670765686E1,1.350167370E1,2.227443662E1
2.351907833E0,8.024437904E0,-1.586651611E1,1.280255318E1,2.190989058E1
2.361942833E0,9.902079582E0,-1.486204147E1,1.196783447E1,2.149791894E1
2.371976833E0,1.151459217E1,-1.375418377E1,1.105279255E1,2.106959010E1
2.382011833E0,1.286011600E1,-1.258184528E1,1.010335827E1,2.063403166E1
2.392045833E0,1.396551895E1,-1.139117908E1,9.159839630E0,2.021626431E1
2.402078833E0,1.485600185E1,-1.021541405E1,8.255986214E0,1.982969449E1
2.412113833E0,1.556713200E1,-9.085122108E0,7.411471844E0,1.948858531E1
2.422147833E0,1.613050461E1,-8.022796631E0,6.639115334E0,1.919990357E1
2.432182833E0,1.657209587E1,-7.036338329E0,5.942706108E0,1.895943497E1
2.442216833E0,1.692843819E1,-6.138798714E0,5.328657627E0,1.877901651E1
2.452250833E0,1.721367264E1,-5.320199490E0,4.793607235E0,1.864386544E1
2.462285833E0,1.744089317E1,-4.560291767E0,4.335203648E0,1.854117058E1
2.472319833E0,1.760709000E1,-3.868232965E0,3.951798916E0,1.845506866E1
2.482354833E0,1.774334526E1,-3.246440411E0,3.630991220E0,1.839972211E1
2.492388833E0,1.784449577E1,-2.692235231E0,3.364023685E0,1.835730959E1
2.502422833E0,1.791505241E1,-2.165084600E0,3.157344818E0,1.831953931E1
2.512457833E0,1.795928764E1,-1.659493566E0,2.999102116E0,1.828345003E1
2.522491833E0,1.798318672E1,-1.170721412E0,2.896634817E0,1.825256384E1
2.532526833E0,1.798256302E1,-6.940922141E-1,2.848227501E0,1.821995435E1
2.542560833E0,1.795092201E1,-2.199316025E-1,2.845626593E0,1.817640123E1
2.552594833E0,1.789485550E1,2.580827177E-1,2.896059990E0,1.812952353E1
2.562629833E0,1.782456398E1,7.463250756E-1,2.997408867E0,1.809023333E1
2.572663833E0,1.774402428E1,1.257443666E0,3.144044638E0,1.806423480E1
2.582698833E0,1.766183853E1,1.795824051E0,3.346199036E0,1.806550781E1
2.592732833E0,1.756101036E1,2.379248142E0,3.606063128E0,1.808462324E1
2.602766833E0,1.745305443E1,2.996584177E0,3.924643040E0,1.813812142E1
2.612801833E0,1.733350945E1,3.646066666E0,4.304333210E0,1.822831962E1
2.622835833E0,1.717818832E1,4.318062782E0,4.746994019E0,1.833765995E1
2.632870833E0,1.697305107E1,5.004945755E0,5.258784294E0,1.846046470E1
2.642904833E0,1.670471382E1,5.694997787E0,5.831201077E0,1.858718294E1
2.652938833E0,1.636262131E1,6.400764465E0,6.461069107E0,1.872032521E1
2.662973833E0,1.593498611E1,7.130543232E0,7.143527985E0,1.886261968E1
2.673007833E0,1.537869644E1,7.891510963E0,7.867268562E0,1.899142344E1
2.683041833E0,1.468084145E1,8.744771957E0,8.627718925E0,1.914250966E1
2.693076833E0,1.383945847E1,9.686216354E0,9.418626785E0,1.934073236E1
2.703110833E0,1.279770374E1,1.070742226E1,1.022799683E1,1.957145962E1
2.713145833E0,1.155220604E1,1.177449799E1,1.103544617E1,1.984624245E1
2.723179833E0,1.009947395E1,1.288918114E1,1.181280804E1,2.019090880E1
2.733213833E0,8.424964905E0,1.398794937E1,1.253088284E1,2.058314325E1
2.743248833E0,5.211795330E0,1.218501186E1,9.071878433E0,1.606039548E1
2.753282833E0,2.419589281E0,7.275769234E0,-1.169424248E1,1.398379553E1
2.763317833E0,9.622878075E0,1.811767769E1,-1.845852470E1,2.759650633E1
2.773351833E0,9.211135864E0,2.960759735E1,-7.668625355E0,3.194155068E1
2.783385833E0,4.538499355E0,1.658465385E1,-1.661882699E-1,1.719524174E1
2.793420833E0,-5.918639898E-1,1.067663908E0,1.024921894E0,1.593949212E0
2.803454833E0,-2.182840586E0,-4.025772095E0,8.571438789E-1,4.659005217E0
2.813489833E0,-3.100193262E0,-6.352151394E0,7.088173628E-1,7.103762922E0
2.823523833E0,-3.796152115E0,-7.538564205E0,7.681848407E-1,8.475307021E0
2.833557833E0,-4.253313065E0,-8.143730164E0,9.975066781E-1,9.241538431E0
2.843592833E0,-4.535326481E0,-8.352324486E0,1.289338470E0,9.591293150E0
2.853626833E0,-4.628926754E0,-8.258441925E0,1.535717726E0,9.590998637E0
2.863660833E0,-4.503014565E0,-7.813829422E0,1.691322327E0,9.175709325E0
2.873695833E0,-4.139887810E0,-6.924832344E0,1.729051352E0,8.251157049E0
2.883729833E0,-3.584037066E0,-5.568493843E0,1.553960323E0,6.802076011E0
2.893764833E0,-2.897096395E0,-3.876370430E0,1.057963490E0,4.953655416E0
2.903798833E0,-2.365287781E0,-2.349003077E0,3.233915567E-1,3.349176591E0
2.913832833E0,-2.246150970E0,-1.409575105E0,-2.853110731E-1,2.667114277E0
2.923867833E0,-2.427653551E0,-1.022907019E0,-6.542384624E-1,2.714381789E0
2.933901833E0,-2.532974005E0,-8.362657428E-1,-9.148662686E-1,2.819978367E0
2.943936833E0,-2.365914822E0,-6.733160019E-1,-1.222783566E0,2.747017843E0
2.953970833E0,-2.022702932E0,-7.285043597E-1,-1.561984777E0,2.657412689E0
2.964004833E0,-1.542649627E0,-1.103147745E0,-1.820443749E0,2.628824502E0
2.974039833E0,-1.068497539E0,-1.481824756E0,-1.979886651E0,2.693964133E0
2.984073833E0,-5.519770980E-1,-1.853312254E0,-2.034647703E0,2.806997738E0
2.994108833E0,-1.641104966E-1,-1.966438770E0,-2.004508495E0,2.812804295E0
3.004142833E0,5.213605240E-2,-1.809317350E0,-1.871000528E0,2.603265338E0
3.014176833E0,1.023508236E-1,-1.482089520E0,-1.597346425E0,2.181417117E0
3.024211833E0,7.605956495E-2,-1.071536303E0,-1.213656664E0,1.620783022E0
3.034245833E0,3.812336549E-2,-6.077740788E-1,-8.078548312E-1,1.011668004E0
3.044280833E0,1.661115140E-2,-1.483332217E-1,-4.037491381E-1,4.304556209E-1
3.054314833E0,2.068678662E-2,2.485198677E-1,-3.587956354E-2,2.519472382E-1
3.064348833E0,2.985764854E-2,4.795373678E-1,2.148029804E-1,5.262963868E-1
3.074383833E0,3.010225855E-2,6.092361808E-1,2.974244952E-1,6.786281753E-1
3.084417833E0,3.487544507E-2,6.509380937E-1,2.629379034E-1,7.029032931E-1
3.094452833E0,4.043538868E-2,6.400937438E-1,1.634590030E-1,6.618714884E-1
3.104486833E0,5.072690919E-2,5.993084908E-1,3.761186823E-2,6.026263677E-1
3.114520833E0,5.624950677E-2,5.402817726E-1,-6.567376107E-2,5.471576041E-1
3.124555833E0,5.449474975E-2,4.643435478E-1,-1.198001131E-1,4.826351368E-1
3.134589833E0,5.487225205E-2,3.850817084E-1,-1.199925244E-1,4.070590769E-1
3.144623833E0,4.475437105E-2,3.122836649E-1,-7.494328916E-2,3.242538168E-1
3.154658833E0,2.554798685E-2,2.496576011E-1,-2.095295861E-2,2.518345566E-1
3.164692833E0,3.071173793E-3,1.870309561E-1,1.481409371E-2,1.876418611E-1
3.174727833E0,-2.881722292E-3,1.108659878E-1,2.122383192E-2,1.129159981E-1
3.184761833E0,1.542813843E-4,3.254508227E-2,4.721821286E-3,3.288619435E-2
3.194795833E0,-4.749665037E-3,-2.712522633E-2,-1.660261676E-2,3.215562322E-2
3.204830833E0,-8.360378444E-3,-6.804975867E-2,-2.078883909E-2,7.164385119E-2
3.214864833E0,-7.960504852E-3,-7.897758484E-2,-1.617558300E-2,8.100912313E-2
3.224899833E0,-1.209666021E-2,-7.253540307E-2,-6.373285782E-3,7.381282178E-2
3.234933833E0,-1.040302310E-2,-4.993728176E-2,-6.454672548E-4,5.101344555E-2
3.244967833E0,-2.557350323E-3,-2.188966796E-2,-1.690491568E-3,2.210328857E-2
3.255002833E0,9.032275411E-4,7.098405156E-3,-4.967737943E-3,8.711004306E-3
3.265036833E0,4.820737522E-3,3.384239972E-2,-7.794416975E-3,3.506138139E-2
3.275071833E0,6.072890945E-3,5.828293785E-2,-8.359093219E-3,5.919168260E-2
3.285105833E0,4.585781135E-3,7.124480605E-2,-9.032074362E-3,7.196131006E-2
3.295139833E0,6.674897857E-3,7.455839217E-2,-8.248434402E-3,7.530965923E-2
3.305174833E0,3.934504930E-3,7.676482201E-2,-6.985830143E-3,7.718238173E-2
3.315208833E0,5.531603005E-3,6.950584799E-2,-6.995150819E-3,7.007562823E-2
3.325243833E0,7.935728645E-4,6.657770276E-2,-8.558160625E-3,6.713018975E-2
3.335277833E0,3.039149567E-3,6.117333844E-2,-8.741337806E-3,6.186941694E-2
3.345311833E0,4.078847822E-3,5.942657217E-2,-1.077972166E-2,6.053393163E-2
3.355346833E0,5.442852154E-3,5.623692274E-2,-8.183505386E-3,5.708927990E-2
3.365380833E0,3.449209500E-3,5.684145913E-2,-9.330262430E-3,5.770530581E-2
3.375415833E0,6.051717326E-3,5.847305804E-2,-9.456436150E-3,5.954112851E-2
3.385449833E0,1.165083144E-3,6.008879840E-2,-8.196760900E-3,6.065647535E-2
3.395483833E0,4.003880545E-3,6.230084598E-2,-1.119962148E-2,6.342600406E-2
3.405519708E0,3.723716130E-3,6.346625090E-2,-9.804656729E-3,6.432699556E-2
3.415553708E0,7.108792663E-3,6.542874128E-2,-1.300582848E-2,6.708656119E-2
3.425588708E0,6.605721544E-3,6.913692504E-2,-8.995107375E-3,7.003186359E-2
3.435622708E0,8.312141523E-3,7.006740570E-2,-7.947806269E-3,7.100493407E-2
3.445656708E0,4.790643696E-3,6.166620180E-2,-5.305417813E-3,6.207912829E-2
3.455691708E0,2.014165279E-3,4.407392070E-2,-3.824048210E-3,4.428533270E-2
3.465725708E0,-7.102367468E-3,3.081244230E-2,5.357199349E-3,3.207101198E-2
3.475759708E0,1.415555482E-3,2.353758365E-2,-2.393929753E-5,2.358012329E-2
3.485794708E0,8.047092706E-3,3.086074442E-2,-9.128222242E-3,3.317326768E-2
3.495828708E0,-1.259806566E-2,4.461369291E-2,2.098793630E-6,4.635830948E-2
3.505863708E0,3.233611956E-2,1.521876812E0,-5.230286121E-1,1.609569379E0
3.515897708E0,-2.183279842E-1,2.444262207E-1,-2.403598547E0,2.425839496E0
3.525931708E0,5.325796008E-1,-3.108292818E-1,-2.842284203E0,2.908407702E0
3.535966708E0,1.252033949E0,-6.726130843E-1,-2.146930456E0,2.574744211E0
3.546000708E0,1.186910033E0,-7.108062506E-1,-1.109684467E0,1.773527719E0
3.556035708E0,5.007497072E-1,-6.096673012E-1,-5.078628659E-1,9.382799039E-1
3.566069708E0,1.530602342E-3,-7.005380988E-1,-3.060770631E-1,7.644861929E-1
3.576103708E0,-3.048807979E-1,-1.241750956E0,6.334884465E-2,1.280199521E0
3.586138708E0,-5.218213797E-1,-1.753716230E0,3.146681786E-1,1.856565170E0
3.596172708E0,-7.274152637E-1,-2.380043507E0,3.883658350E-1,2.518842607E0
3.606207708E0,-1.004799962E0,-2.832831144E0,5.573024154E-1,3.056982375E0
3.616241708E0,-1.214816093E0,-3.054994583E0,8.291961551E-1,3.390624767E0
3.626275708E0,-1.299057961E0,-3.001877785E0,1.034030795E0,3.430457915E0
3.636310708E0,-1.324451923E0,-2.707203865E0,1.130391002E0,3.218836666E0
3.646344708E0,-1.324074030E0,-2.263792276E0,1.155838728E0,2.865988603E0
3.656379708E0,-1.354766011E0,-1.956675887E0,1.165381193E0,2.649921659E0
3.666413708E0,-1.393834114E0,-1.785372019E0,1.244473100E0,2.584383888E0
3.676447708E0,-1.466469765E0,-2.120812654E0,1.383383751E0,2.926111838E0
3.686482708E0,-1.541118383E0,-2.759732485E0,1.573235750E0,3.530756291E0
3.696516708E0,-1.684023380E0,-3.408643246E0,1.781464458E0,4.198618718E0
3.706551708E0,-1.790746689E0,-3.786971569E0,1.961898446E0,4.625686207E0
3.716585708E0,-2.080233574E0,-4.117687225E0,2.040287495E0,5.044352572E0
3.726619708E0,-2.494060040E0,-4.332231045E0,1.986070395E0,5.378943848E0
3.736654708E0,-3.012290001E0,-4.239204407E0,1.852645397E0,5.520601418E0
3.746688708E0,-3.417226315E0,-3.849098921E0,1.620499015E0,5.396203781E0
3.756723708E0,-3.697529554E0,-3.270658970E0,1.399445772E0,5.131021669E0
3.766757708E0,-3.773200274E0,-2.745692253E0,1.186173797E0,4.814859762E0
3.776791708E0,-3.711115360E0,-2.454419136E0,1.004121304E0,4.561229013E0
3.786826708E0,-3.573855162E0,-2.485501289E0,8.607913256E-1,4.437467643E0
3.796860708E0,-3.358596087E0,-2.698911190E0,7.346461415E-1,4.370811622E0
3.806895708E0,-3.038991928E0,-2.812696457E0,6.009485126E-1,4.184240960E0
3.816929708E0,-2.610679626E0,-2.664601088E0,4.155417085E-1,3.753454673E0
3.826963708E0,-2.096330881E0,-2.353161573E0,1.512796879E-1,3.155132025E0
3.836998708E0,-1.518310428E0,-1.955715418E0,-1.488321424E-1,2.480371012E0
3.847032708E0,-9.155389071E-1,-1.662033200E0,-4.249455035E-1,1.944516529E0
3.857067708E0,-3.198553026E-1,-1.533765197E0,-6.296067834E-1,1.688534215E0
3.867101708E0,2.576373518E-1,-1.514541745E0,-7.519896626E-1,1.710468402E0
3.877135708E0,8.396637440E-1,-1.415530801E0,-7.927808166E-1,1.826818019E0
3.887170708E0,1.416432261E0,-1.425068378E0,-7.365228534E-1,2.139992091E0
3.897204708E0,1.946607709E0,-1.690738201E0,-6.236001253E-1,2.652688137E0
3.907239708E0,2.426172733E0,-1.998074412E0,-4.966503680E-1,3.182024054E0
3.917273708E0,2.846318245E0,-2.269200802E0,-3.698118925E-1,3.658901566E0
3.927307708E0,3.192839384E0,-2.499804258E0,-2.655057311E-1,4.063709876E0
3.937342708E0,3.487033129E0,-2.498890400E0,-2.413877547E-1,4.296757070E0
3.947376708E0,3.720427513E0,-2.288053513E0,-3.072336018E-1,4.378488580E0
3.957411708E0,3.910483599E0,-1.959984064E0,-4.362201989E-1,4.395873926E0
3.967445708E0,4.053354740E0,-1.606305361E0,-5.709623098E-1,4.397260456E0
3.977479708E0,4.138511658E0,-1.496722460E0,-6.494125128E-1,4.448504634E0
3.987514708E0,4.157959461E0,-1.626030207E0,-6.300707459E-1,4.508834690E0
3.997548708E0,4.131125450E0,-1.888002038E0,-5.482876301E-1,4.575081257E0
4.007583708E0,4.084164619E0,-2.034712315E0,-4.319519699E-1,4.583343468E0
4.017617708E0,4.034754753E0,-1.884624720E0,-2.836302817E-1,4.462230652E0
4.027651708E0,3.979429722E0,-1.579856515E0,-2.159513533E-1,4.287008573E0
4.037686708E0,3.877692461E0,-1.170711398E0,-1.706637144E-1,4.054157138E0
4.047720708E0,3.639390707E0,-8.877003789E-1,-4.426208511E-2,3.746349665E0
4.057755708E0,3.341459513E0,-7.767459154E-1,1.043263674E-1,3.432137801E0
4.067789708E0,3.050620079E0,-8.248136044E-1,2.337935567E-1,3.168794688E0
4.077823708E0,2.796060324E0,-7.244610786E-1,3.886500597E-1,2.914420364E0
4.087858708E0,2.578009367E0,-5.500282645E-1,5.180754066E-1,2.686459662E0
4.097892708E0,2.404104948E0,-3.186854124E-1,6.381634474E-1,2.507694874E0
4.107927708E0,2.291614294E0,-1.334063709E-1,7.554724813E-1,2.416615816E0
4.117961708E0,2.232987165E0,-8.661837876E-2,8.366513252E-1,2.386151685E0
4.127995708E0,2.197848320E0,-5.233843625E-2,8.683676720E-1,2.363755267E0
4.138030708E0,2.189086437E0,1.645795628E-2,8.697398901E-1,2.355592870E0
4.148064708E0,2.190103292E0,1.767488122E-1,8.025619388E-1,2.339208892E0
4.158098708E0,2.210401535E0,3.692301214E-1,6.802999377E-1,2.342010639E0
4.168133708E0,2.237638235E0,5.113419890E-1,5.567383170E-1,2.361874902E0
4.178167708E0,2.251480103E0,5.880065560E-1,4.699740410E-1,2.373981879E0
4.188202708E0,2.238597155E0,6.444876790E-1,4.205532074E-1,2.367181148E0
4.198236708E0,2.180922985E0,6.709336638E-1,4.099744260E-1,2.318330451E0
4.208270708E0,2.073654890E0,5.689356327E-1,4.341388643E-1,2.193674750E0
4.218305708E0,1.938149810E0,3.048538268E-1,5.051271915E-1,2.025960024E0
4.228339708E0,1.768193722E0,5.843712389E-2,6.342297792E-1,1.879407180E0
4.238374708E0,1.607052207E0,-7.749100775E-2,7.533668876E-1,1.776565034E0
4.248408708E0,1.479371309E0,-2.157338262E-1,8.110206127E-1,1.700833616E0
4.258443708E0,1.384090900E0,-3.703083396E-1,7.996942401E-1,1.640837215E0
4.268477708E0,1.290101767E0,-5.884108543E-1,7.282970548E-1,1.594053481E0
4.278511708E0,1.177244186E0,-7.791503072E-1,6.435955763E-1,1.551513565E0
4.288546708E0,1.048984170E0,-9.124013186E-1,5.492346883E-1,1.494825307E0
4.298580708E0,9.336124659E-1,-9.789526463E-1,4.864935279E-1,1.437587031E0
4.308614708E0,8.496461511E-1,-1.016534567E0,4.759689867E-1,1.407759775E0
4.318649708E0,7.750490308E-1,-9.807995558E-1,4.900295436E-1,1.342683031E0
4.328683708E0,7.447646260E-1,-8.663672805E-1,4.866484106E-1,1.241810488E0
4.338718708E0,7.726950049E-1,-8.180373907E-1,4.663339853E-1,1.218076405E0
4.348752708E0,8.749529719E-1,-7.150513530E-1,4.073180556E-1,1.201144928E0
4.358786708E0,9.952600002E-1,-7.421877384E-1,3.255220652E-1,1.283491224E0
4.368821708E0,1.099974632E0,-8.117662668E-1,2.736268938E-1,1.394195230E0
4.378855708E0,1.114681840E0,-9.667706490E-1,2.171978951E-1,1.491420805E0
4.388890708E0,1.005819798E0,-1.130732656E0,1.182936728E-1,1.517966797E0
4.398923958E0,8.403075933E-1,-1.132502794E0,5.457805470E-2,1.411261207E0
4.408958958E0,7.148599029E-1,-1.120282173E0,-6.106332876E-3,1.328944738E0
4.418992958E0,6.969415545E-1,-1.066286325E0,-5.177639425E-2,1.274901899E0
4.429026958E0,7.470098138E-1,-1.030847073E0,-1.862376742E-2,1.273191342E0
4.439061958E0,8.073947430E-1,-1.009771466E0,8.393794298E-2,1.295596489E0
4.449095958E0,8.317147493E-1,-1.024267316E0,1.524277925E-1,1.328196970E0
4.459130958E0,7.789202332E-1,-1.034341812E0,1.608708203E-1,1.304783175E0
4.469164958E0,6.395812631E-1,-1.040935993E0,1.567844599E-1,1.231744008E0
4.479198958E0,4.775834382E-1,-1.030748487E0,1.656337231E-1,1.148025659E0
4.489233958E0,3.523815572E-1,-1.107363343E0,1.860958636E-1,1.176884874E0
4.499267958E0,2.627571523E-1,-1.233549833E0,2.024745643E-1,1.277373266E0
4.509302958E0,1.623152196E-1,-1.393455625E0,2.348255813E-1,1.422395115E0
4.519336958E0,-1.374015864E-2,-1.627370834E0,3.114581108E-1,1.656964326E0
4.529370958E0,-2.245890200E-1,-1.772434831E0,4.459754527E-1,1.841428674E0
4.539405958E0,-4.281187057E-1,-1.935066700E0,5.998281240E-1,2.070643025E0
4.549439958E0,-6.126731038E-1,-2.074182749E0,7.527484298E-1,2.290028953E0
4.559473958E0,-7.884323001E-1,-2.174861670E0,8.666514158E-1,2.470371116E0
4.569508958E0,-9.530449510E-1,-2.226999998E0,8.858488202E-1,2.579254117E0
4.579542958E0,-1.072395086E0,-2.258035421E0,8.231433034E-1,2.631790281E0
4.589577958E0,-1.170340300E0,-2.161437511E0,6.745506525E-1,2.548828577E0
4.599611958E0,-1.242865920E0,-2.007940531E0,4.964833558E-1,2.413096888E0
4.609646958E0,-1.278165817E0,-1.863050818E0,3.714713752E-1,2.289684955E0
4.619680958E0,-1.256578445E0,-1.756845713E0,3.626902103E-1,2.190214701E0
4.629714958E0,-1.270620227E0,-1.538505197E0,3.384461105E-1,2.023862587E0
4.639749958E0,-1.339005351E0,-1.427178025E0,3.086380363E-1,1.981168817E0
4.649783958E0,-1.497849703E0,-1.229560256E0,2.757573128E-1,1.957399870E0
4.659817958E0,-1.712337732E0,-1.106970549E0,2.645061016E-1,2.056075821E0
4.669852958E0,-1.939875841E0,-9.326967597E-1,3.589005172E-1,2.182166608E0
4.679886958E0,-2.131890297E0,-6.771834493E-1,5.378628373E-1,2.300615156E0
4.689921958E0,-2.216905832E0,-6.485717744E-2,6.752758622E-1,2.318377755E0
4.699955958E0,-2.176830292E0,5.442619920E-1,7.103321552E-1,2.353589388E0
4.709990958E0,-2.015737295E0,1.122117400E0,7.403619885E-1,2.422907381E0
4.720024958E0,-1.815737724E0,1.813919544E0,6.782568693E-1,2.654663816E0
4.730058958E0,-1.602982879E0,2.414135218E0,5.639017820E-1,2.952217502E0
4.740093958E0,-1.378824472E0,2.912185431E0,4.474264085E-1,3.253024946E0
4.750127958E0,-1.180997372E0,3.291141748E0,3.745508492E-1,3.516625817E0
4.760162958E0,-1.056202054E0,3.408360243E0,3.703995347E-1,3.587433364E0
4.770196958E0,-1.030034065E0,3.155942202E0,3.699430525E-1,3.340329208E0
4.780230958E0,-1.084198952E0,2.849040031E0,3.469336927E-1,3.068041632E0
4.790265958E0,-1.172962189E0,2.466576815E0,2.405318916E-1,2.741841912E0
4.800299958E0,-1.159080863E0,2.241511583E0,6.275294721E-2,2.524238609E0
4.810334958E0,-9.980410337E-1,1.952485919E0,-1.664328426E-1,2.199087779E0
4.820368958E0,-7.437534928E-1,1.467042208E0,-3.835319877E-1,1.688928324E0
4.830402958E0,-3.854816258E-1,8.846562505E-1,-4.818881154E-1,1.078623623E0
4.840437958E0,-1.786429551E-3,3.143036067E-1,-4.029962420E-1,5.110733016E-1
4.850471958E0,3.082681000E-1,-2.696317434E-1,-2.276116312E-1,4.685483467E-1
4.860506958E0,4.917780757E-1,-7.689994574E-1,-6.751564145E-2,9.152945990E-1
4.870540958E0,5.168962479E-1,-1.134555101E0,5.670750514E-2,1.248043569E0
4.880574958E0,4.085607827E-1,-1.339048266E0,1.651597470E-1,1.409698519E0
4.890609958E0,2.015401870E-1,-1.387668014E0,2.742380500E-1,1.428792312E0
4.900643958E0,-6.497412175E-2,-1.288127184E0,3.792122900E-1,1.344356813E0
4.910678958E0,-3.425269127E-1,-1.045063615E0,4.634355605E-1,1.193421620E0
4.920712958E0,-5.613489747E-1,-7.184761763E-1,5.176700950E-1,1.048476521E0
4.930746958E0,-7.141337395E-1,-3.777774572E-1,5.457166433E-1,9.749407468E-1
4.940781958E0,-7.950164080E-1,-1.033563837E-1,5.504255891E-1,9.724720871E-1
4.950815958E0,-7.972526550E-1,1.481813043E-1,5.259332657E-1,9.665274413E-1
4.960850958E0,-7.378064394E-1,3.745333850E-1,4.732183218E-1,9.531889522E-1
4.970884958E0,-6.559547186E-1,5.522136092E-1,3.921191990E-1,9.428541400E-1
4.980918958E0,-6.238980293E-1,6.261132360E-1,2.892974317E-1,9.300320098E-1
4.990953958E0,-6.059411168E-1,6.539608836E-1,1.618398577E-1,9.061024301E-1
5.000987958E0,-6.187672019E-1,6.978756785E-1,1.770558394E-2,9.328541154E-1
5.011022958E0,-7.103895545E-1,6.827515960E-1,-1.484221369E-1,9.964096505E-1
5.021056958E0,-7.647736073E-1,6.633244753E-1,-2.451680601E-1,1.041626328E0
5.031090958E0,-8.177942038E-1,6.451470852E-1,-2.453307807E-1,1.070135185E0
5.041125958E0,-9.495107532E-1,6.242372990E-1,-1.589480042E-1,1.147391539E0
5.051159958E0,-1.105606675E0,5.416761041E-1,-4.512184113E-2,1.231996389E0
5.061194958E0,-1.184523821E0,4.480915070E-1,8.428061008E-2,1.269246194E0
5.071228958E0,-1.221496582E0,3.617651463E-1,2.270047367E-1,1.294008915E0
5.081262958E0,-1.218479991E0,2.470510602E-1,3.360879421E-1,1.287898606E0
5.091297958E0,-1.201507688E0,1.425387710E-1,3.782268763E-1,1.267672511E0
5.101331958E0,-1.175871849E0,9.663975984E-2,3.782264292E-1,1.238979048E0
5.111366958E0,-1.160605311E0,4.131551459E-2,3.505431414E-1,1.213091981E0
5.121400958E0,-1.169952393E0,-2.859836072E-2,3.413769901E-1,1.219075353E0
5.131434958E0,-1.192301989E0,-3.733752668E-2,3.247868121E-1,1.236310882E0
5.141469958E0,-1.175903201E0,3.015100025E-2,2.923555374E-1,1.212076393E0
5.151503958E0,-1.091564059E0,6.155819073E-2,2.420012653E-1,1.119761635E0
5.161538958E0,-9.800385833E-1,2.764756791E-3,1.744280756E-1,9.954438317E-1
5.171572958E0,-8.587505221E-1,-4.233347997E-2,4.467859864E-2,8.609534017E-1
5.181606958E0,-6.951748133E-1,1.521599740E-1,-1.103695109E-1,7.201403388E-1
5.191641958E0,-5.833202004E-1,1.413448900E-1,-1.671371907E-1,6.230374585E-1
5.201675958E0,-5.343632698E-1,-4.617735744E-2,-1.740503907E-1,5.638882788E-1
5.211710958E0,-6.011481881E-1,-9.872817993E-2,-6.518126000E-3,6.092363117E-1
5.221744958E0,-6.805866361E-1,9.481750429E-2,1.874834448E-1,7.122770321E-1
5.231778958E0,-7.598356605E-1,3.885151446E-1,3.427760899E-1,9.196682534E-1
5.241813958E0,-7.786396146E-1,4.754842818E-1,4.372784197E-1,1.011720005E0
5.251847958E0,-7.397606969E-1,4.658654928E-1,4.969912767E-1,1.005622631E0
5.261882958E0,-7.109994292E-1,3.555250168E-1,5.604966283E-1,9.726637118E-1
5.271916958E0,-6.681563854E-1,1.738188565E-1,6.568154097E-1,9.529178520E-1
5.281950958E0,-5.788794756E-1,-6.780102849E-2,8.042680621E-1,9.932499899E-1
5.291985958E0,-4.430829883E-1,-2.301284224E-1,9.290917516E-1,1.054747888E0
5.302019958E0,-2.954191566E-1,-2.669304311E-1,9.616129994E-1,1.040780425E0
5.312054958E0,-1.564863324E-1,-1.947201490E-1,9.027352929E-1,9.366615812E-1
5.322088958E0,-1.583933271E-2,-2.990044840E-2,7.908390164E-1,7.915625504E-1
5.332122958E0,1.304451823E-1,1.649587899E-1,6.878966689E-1,7.193255001E-1
5.342157958E0,2.559431195E-1,3.263534904E-1,6.094867587E-1,7.372161082E-1
5.352191958E0,3.260849118E-1,4.581716955E-1,5.174401999E-1,7.641969855E-1
5.362226958E0,3.454728723E-1,5.958864093E-1,3.839520216E-1,7.885754708E-1
5.372260958E0,3.408432305E-1,6.916949749E-1,2.036855668E-1,7.975611928E-1
5.382294958E0,3.198336065E-1,6.816039681E-1,1.791308820E-2,7.531257425E-1
5.392329958E0,3.225391209E-1,5.321353674E-1,-1.462782472E-1,6.392158160E-1
5.402364375E0,3.195526600E-1,2.826517224E-1,-2.967478931E-1,5.196779876E-1
5.412399375E0,3.189404011E-1,3.284056485E-2,-5.047828555E-1,5.980026867E-1
5.422433375E0,3.193493187E-1,-1.423574835E-1,-7.783322334E-1,8.532588740E-1
5.432467375E0,3.012281060E-1,-1.790856719E-1,-1.058328509E0,1.114840474E0
5.442502375E0,2.239945680E-1,-7.857876271E-2,-1.126331687E0,1.151073958E0
5.452536375E0,6.418892741E-2,3.337999061E-2,-1.018232107E0,1.020799229E0
5.462571375E0,-1.328022331E-1,1.637175530E-1,-7.738182545E-1,8.020190529E-1
5.472605375E0,-2.819530964E-1,2.297666073E-1,-4.723913074E-1,5.961910681E-1
5.482639375E0,-3.634905815E-1,1.919051409E-1,-2.074714899E-1,4.604317594E-1
5.492674375E0,-3.805577159E-1,1.606798470E-1,-3.128767759E-2,4.142717793E-1
5.502708375E0,-3.630381525E-1,1.733846366E-1,3.069308214E-2,4.034860563E-1
5.512743375E0,-3.051383793E-1,1.738946289E-1,5.308893695E-2,3.552002361E-1
5.522777375E0,-2.356238961E-1,1.539071500E-1,1.062857136E-1,3.008366403E-1
5.532812375E0,-1.481568962E-1,1.023070738E-1,1.674183160E-1,2.458578772E-1
5.542846375E0,-8.672295511E-2,1.566621475E-2,2.115978897E-1,2.292159858E-1
5.552880375E0,-3.633781150E-2,-4.422481731E-2,2.284216136E-1,2.354839794E-1
5.562915375E0,6.583755836E-3,-5.141032860E-2,2.208666801E-1,2.268666087E-1
5.572949375E0,3.267554194E-2,-4.776339605E-2,1.937402487E-1,2.021987067E-1
5.582984375E0,3.876059875E-2,-4.127098620E-2,1.608797759E-1,1.705519880E-1
5.593018375E0,2.323543467E-2,-5.486988649E-2,1.596360803E-1,1.703944482E-1
5.603052375E0,2.951649949E-2,-4.245715961E-2,1.675432771E-1,1.753413353E-1
5.613087375E0,6.654322892E-2,-9.803073481E-3,1.633551866E-1,1.766607442E-1
5.623121375E0,1.057529449E-1,2.479596622E-2,1.426424682E-1,1.792913803E-1
5.633156375E0,1.422569007E-1,7.753001899E-2,1.034945324E-1,1.922473612E-1
5.643190375E0,1.697443873E-1,1.201841757E-1,7.125821710E-2,2.198525110E-1
5.653224375E0,1.814612299E-1,1.371708810E-1,5.315218493E-2,2.336004780E-1
5.663259375E0,2.068139762E-1,1.482790858E-1,5.423849076E-2,2.601932395E-1
5.673293375E0,2.500503957E-1,1.270526350E-1,8.859726787E-2,2.941378050E-1
5.683328375E0,2.915608883E-1,2.968936600E-2,1.298052222E-1,3.205286348E-1
5.693362375E0,2.970163822E-1,-1.000435948E-1,1.376948506E-1,3.423263414E-1
5.703396375E0,2.618782818E-1,-1.800707281E-1,1.165913492E-1,3.385251015E-1
5.713431375E0,1.931109577E-1,-1.852276623E-1,1.122226864E-1,2.901638507E-1
5.723465375E0,9.890010208E-2,-1.405288577E-1,1.350729465E-1,2.185733079E-1
5.733500375E0,-1.527168904E-3,-1.210899130E-1,1.545598209E-1,1.963513114E-1
5.743534375E0,-1.008711979E-1,-1.439167410E-1,1.616940349E-1,2.388137095E-1
5.753568375E0,-1.735834926E-1,-1.608222276E-1,1.938605011E-1,3.059034352E-1
5.763603375E0,-2.014368176E-1,-1.577329785E-1,2.719836831E-1,3.734054203E-1
5.773637375E0,-1.990327835E-1,-1.773713976E-1,3.340310752E-1,4.273773752E-1
5.783672375E0,-1.888436675E-1,-2.092423886E-1,3.392840028E-1,4.410872278E-1
5.793706375E0,-1.822339743E-1,-1.907528490E-1,2.935657799E-1,3.946856191E-1
5.803740375E0,-2.021912932E-1,-1.158617064E-1,2.452085167E-1,3.382786880E-1
5.813775375E0,-2.556973994E-1,-3.137718141E-2,2.110342979E-1,3.330182615E-1
5.823809375E0,-3.265295327E-1,5.405970290E-2,1.810755134E-1,3.772695704E-1
5.833844375E0,-3.817118406E-1,1.337380260E-1,1.440242827E-1,4.293399386E-1
5.843878375E0,-4.126384556E-1,2.118591070E-1,1.089644656E-1,4.764745859E-1
5.853913375E0,-3.973487318E-1,2.777968347E-1,7.339289039E-2,4.903504995E-1
5.863947375E0,-3.589227796E-1,3.147907555E-1,3.574989364E-2,4.787450640E-1
5.873981375E0,-3.085016906E-1,3.238843679E-1,1.496924739E-2,4.475471543E-1
5.884016375E0,-2.669518292E-1,3.101252913E-1,1.171137788E-3,4.091971982E-1
5.894050375E0,-2.699135542E-1,2.902288139E-1,-2.001750469E-2,3.968460553E-1
5.904085375E0,-3.231451213E-1,3.029413819E-1,-6.031519547E-2,4.470281570E-1
5.914119375E0,-3.853808045E-1,3.212090433E-1,-9.159401804E-2,5.099834097E-1
5.924153375E0,-4.440590441E-1,2.984327972E-1,-1.075402200E-1,5.457247182E-1
5.934188375E0,-4.937424362E-1,2.180378139E-1,-1.001171917E-1,5.489494819E-1
5.944222375E0,-5.320935249E-1,1.001585796E-1,-8.413556218E-2,5.479361762E-1
5.954257375E0,-5.482435226E-1,2.128293924E-2,-6.898990273E-2,5.529769709E-1
5.964291375E0,-5.414372087E-1,-3.540251032E-2,-4.651384056E-2,5.445834427E-1
5.974325375E0,-5.354251266E-1,-9.659049660E-2,-2.077252604E-2,5.444642211E-1
5.984360375E0,-5.529568791E-1,-7.306905091E-2,-1.442905236E-2,5.579503508E-1
5.994394375E0,-6.060241461E-1,-1.623772457E-2,-2.482044138E-2,6.067495230E-1
6.004429375E0,-7.133544683E-1,4.265379533E-2,-4.892033711E-2,7.163010143E-1
6.014463375E0,-8.495751619E-1,1.700114906E-1,-8.954685926E-2,8.710341570E-1
6.024497375E0,-9.640892744E-1,3.407816887E-1,-1.493095756E-1,1.033389393E0
6.034532375E0,-1.031031251E0,4.659348130E-1,-1.838800609E-1,1.146268977E0
6.044566375E0,-1.063931704E0,5.590862036E-1,-1.888801455E-1,1.216636249E0
6.054601375E0,-1.073188782E0,7.219379544E-1,-1.860982180E-1,1.306736820E0
6.064635375E0,-1.084949374E0,9.508955479E-1,-2.156273574E-1,1.458702384E0
6.074669375E0,-1.149079919E0,1.114782453E0,-2.319219112E-1,1.617687346E0
6.084704375E0,-1.268360972E0,1.272244930E0,-1.981311738E-1,1.807374527E0
6.094738375E0,-1.408859730E0,1.428241491E0,-7.343451679E-2,2.007523879E0
6.104773375E0,-1.561156750E0,1.514028430E0,1.017960757E-1,2.177120788E0
6.114807375E0,-1.709889770E0,1.517146468E0,3.253034651E-1,2.308956209E0
6.124841375E0,-1.753559232E0,1.296781778E0,5.909295082E-1,2.259604090E0
6.134876375E0,-1.595248103E0,8.831328750E-1,7.280538082E-1,1.963365104E0
6.144910375E0,-1.343329191E0,5.170831084E-1,8.453449607E-1,1.669286183E0
6.154945375E0,-1.086487532E0,1.969450414E-1,8.652155995E-1,1.402797398E0
6.164979375E0,-8.478391171E-1,-4.552584887E-2,8.367985487E-1,1.192113913E0
6.175014375E0,-6.538712382E-1,-1.530935764E-1,7.708040476E-1,1.022313122E0
6.185048375E0,-4.895352423E-1,-1.040701717E-1,6.621795893E-1,8.300344346E-1
6.195082375E0,-3.652274013E-1,-6.536158733E-3,5.475033522E-1,6.581745184E-1
6.205117375E0,-2.498289347E-1,4.040018842E-2,3.461260200E-1,4.287772073E-1
6.215151375E0,-1.327041686E-1,8.260942250E-2,1.281047314E-1,2.021027839E-1
6.225186375E0,-4.905700311E-2,2.806662209E-2,-2.495919168E-2,6.178418956E-2
6.235220375E0,-4.017358180E-3,-4.021043330E-2,-1.331093758E-1,1.391083177E-1
6.245254375E0,8.660487831E-3,-6.580269337E-2,-2.123167068E-1,2.224486064E-1
6.255289375E0,2.410580870E-3,2.396600321E-3,-2.582514286E-1,2.582737985E-1
6.265323375E0,-1.160690002E-2,-4.154095892E-3,-2.585451305E-1,2.588388710E-1
6.275358375E0,-2.479034476E-2,-7.282556593E-2,-1.779317707E-1,1.938500432E-1
6.285392375E0,-3.379509225E-2,-5.184352025E-2,-5.060558021E-2,7.994237676E-2
6.295426375E0,-5.448385701E-2,-1.009207871E-2,1.204780191E-1,1.326095540E-1
6.305461375E0,-9.320768714E-2,-4.858154804E-2,2.621074617E-1,2.823971693E-1
6.315495375E0,-1.538281590E-1,-5.549777672E-2,3.084382117E-1,3.491092037E-1
6.325530375E0,-2.144353688E-1,-4.784059152E-2,2.850255072E-1,3.598760750E-1
6.335564375E0,-2.017757744E-1,-1.488663442E-2,2.668265104E-1,3.348603615E-1
6.345598375E0,-1.634858400E-1,5.013214052E-2,2.465585917E-1,3.000533128E-1
6.355633375E0,-1.076521352E-1,6.891941279E-2,2.116674483E-1,2.472690363E-1
6.365667375E0,-3.356219083E-2,-1.381222066E-2,1.829303354E-1,1.864958597E-1
6.375702375E0,2.276952192E-2,-9.276908636E-2,1.788141578E-1,2.027290250E-1
6.385736375E0,4.678617045E-2,-1.085410714E-1,1.666816026E-1,2.043351819E-1
6.395770375E0,3.847364709E-2,-9.245930612E-2,1.294074655E-1,1.636314057E-1
6.405805833E0,2.916810103E-2,-7.497183233E-2,9.361969680E-2,1.234350088E-1
6.415839833E0,3.471972421E-2,-3.928201273E-2,6.356751919E-2,8.239760475E-2
6.425874833E0,3.716331348E-2,-1.450526714E-2,5.252431706E-2,6.595694448E-2
6.435908833E0,5.677296594E-2,-6.819118746E-3,6.114390492E-2,8.371527430E-2
6.445942833E0,7.517188042E-2,-4.430726403E-4,6.536123157E-2,9.961475047E-2
6.455977833E0,8.354805410E-2,1.817135885E-2,6.612635404E-2,1.080887151E-1
6.466011833E0,7.114397734E-2,4.260503128E-2,5.448235944E-2,9.922188112E-2
6.476046833E0,5.076493323E-2,7.742346823E-2,4.761619866E-2,1.041094340E-1
6.486080833E0,2.174586616E-2,1.376381218E-1,4.203188047E-2,1.455466051E-1
6.496114833E0,-1.906494796E-2,1.776446551E-1,4.674807563E-2,1.846793933E-1
6.506149833E0,-6.064048409E-2,1.693615615E-1,6.252103299E-2,1.904454946E-1
6.516183833E0,-8.477431536E-2,1.134199947E-1,6.994938850E-2,1.579357360E-1
6.526218833E0,-8.506114036E-2,2.725155279E-2,7.875273377E-2,1.190799639E-1
6.536252833E0,-5.127441138E-2,-6.461764872E-2,7.860066742E-2,1.139410844E-1
6.546287833E0,6.397807505E-3,-1.641714871E-1,6.292542815E-2,1.759341315E-1
6.556321833E0,9.478226304E-2,-2.020472288E-1,5.160673335E-2,2.290633427E-1
6.566355833E0,2.221968025E-1,-2.202017456E-1,1.197104342E-2,3.130551608E-1
6.576390833E0,3.944617808E-1,-2.324930429E-1,5.872603506E-2,4.616295687E-1
6.586424833E0,5.575019121E-1,-3.245941699E-1,1.268486977E-1,6.574650935E-1
6.596459833E0,6.415419579E-1,-3.603822589E-1,1.079104245E-1,7.437043202E-1
6.606493833E0,6.272419691E-1,-2.607208490E-1,7.636009157E-2,6.835486175E-1
6.616527833E0,5.095006824E-1,-1.255835146E-1,7.764320821E-2,5.304626587E-1
6.626562833E0,3.492682576E-1,3.380773589E-3,1.079367846E-1,3.655818580E-1
6.636596833E0,1.683190018E-1,8.074560016E-2,1.559187025E-1,2.432319471E-1
6.646631833E0,-2.213717252E-2,1.948783845E-1,2.215891331E-1,2.959212447E-1
6.656665833E0,-1.534930617E-1,2.587700486E-1,2.953658700E-1,4.216195622E-1
6.666699833E0,-2.151838541E-1,2.844249904E-1,3.763110638E-1,5.184705227E-1
6.676734833E0,-2.084545791E-1,2.742882073E-1,4.082300961E-1,5.341714552E-1
6.686768833E0,-1.452471912E-1,2.768638730E-1,3.973190784E-1,5.055816460E-1
6.696803833E0,-3.403490782E-2,3.172035813E-1,3.868674934E-1,5.014408683E-1
6.706837833E0,9.264793247E-2,3.478297293E-1,4.452346861E-1,5.725409031E-1
6.716871833E0,2.081606835E-1,3.067091703E-1,5.017818809E-1,6.238480915E-1
6.726906833E0,2.674768865E-1,1.946756542E-1,5.451967716E-1,6.377162495E-1
6.736940833E0,2.638304830E-1,1.466612667E-1,6.369477510E-1,7.048535227E-1
6.746975833E0,2.198680788E-1,1.046549529E-1,5.861306787E-1,6.346997745E-1
6.757009833E0,1.074802801E-1,3.159859031E-2,3.555687964E-1,3.727997458E-1
6.767043833E0,-4.848714545E-2,5.913609266E-2,8.038099110E-2,1.109467641E-1
6.777078833E0,-1.879736632E-1,1.040771976E-1,-2.031697631E-1,2.957095091E-1
6.787112833E0,-2.840783596E-1,5.927052349E-2,-4.157429934E-1,5.070066527E-1
6.797147833E0,-3.176288605E-1,3.552604839E-2,-4.855798781E-1,5.813243597E-1
6.807181833E0,-2.909140289E-1,1.210476309E-1,-4.563126862E-1,5.545311251E-1
6.817216833E0,-2.106373161E-1,1.816864759E-1,-3.883996606E-1,4.777366961E-1
6.827250833E0,-8.577785641E-2,1.572381705E-1,-2.851019800E-1,3.366969289E-1
6.837284833E0,6.048161164E-2,4.988348112E-2,-1.529729664E-1,1.718927442E-1
6.847319833E0,1.964168698E-1,-8.872453868E-2,3.909394145E-3,2.155618562E-1
6.857353833E0,2.997296751E-1,-2.384490520E-1,1.755461246E-1,4.213220506E-1
6.867388833E0,3.489267230E-1,-3.970073462E-1,2.721181214E-1,5.944854606E-1
6.877422833E0,3.597218394E-1,-5.234646201E-1,2.334343791E-1,6.766879780E-1
6.887456833E0,3.241328895E-1,-5.812755823E-1,1.175846830E-1,6.758473129E-1
6.897491833E0,2.301747054E-1,-5.558663607E-1,-1.416695211E-2,6.018043772E-1
6.907525833E0,9.437652677E-2,-4.804450572E-1,-1.235407144E-1,5.049719694E-1
6.917560833E0,-5.424969643E-2,-3.519922793E-1,-1.929421574E-1,4.050534167E-1
6.927594833E0,-1.820208430E-1,-1.894645393E-1,-2.025118321E-1,3.317219334E-1
6.937629833E0,-2.424492985E-1,1.485708053E-3,-1.739251912E-1,2.983853914E-1
6.947663833E0,-2.250670493E-1,1.561189443E-1,-1.282471269E-1,3.024493792E-1
6.957697833E0,-1.450558305E-1,2.219829112E-1,-8.672764152E-2,2.789969366E-1
6.967732833E0,-4.141239449E-2,1.771664172E-1,-4.849489406E-2,1.882941331E-1
6.977766833E0,7.179085910E-2,3.058895655E-2,-1.201757789E-2,7.895589840E-2
6.987801833E0,1.634590626E-1,-1.764136553E-1,1.612010598E-2,2.410404545E-1
6.997835833E0,2.283496559E-1,-3.880574703E-1,3.025216982E-2,4.512730431E-1
7.007869833E0,2.713296711E-1,-5.504618287E-1,2.925329842E-2,6.143970791E-1
7.017904833E0,2.947266102E-1,-6.975815296E-1,1.371615101E-2,7.574113136E-1
7.027938833E0,3.209291697E-1,-7.946987748E-1,1.131370384E-2,8.571287386E-1
7.037973833E0,3.658457994E-1,-8.202350140E-1,2.194477618E-2,8.983931212E-1
7.048007833E0,4.423675835E-1,-7.785148025E-1,3.630761057E-2,8.961543501E-1
7.058041833E0,4.947207868E-1,-7.932255268E-1,6.827832013E-2,9.373458926E-1
7.068076833E0,5.127872229E-1,-7.756772637E-1,1.116477102E-1,9.365314541E-1
7.078110833E0,5.082877874E-1,-6.820823550E-1,1.534034014E-1,8.643641695E-1
7.088145833E0,4.761510491E-1,-6.123823524E-1,1.904696822E-1,7.987556991E-1
7.098179833E0,4.359239936E-1,-5.850391388E-1,2.226478606E-1,7.628057367E-1
7.108213833E0,4.165967405E-1,-5.427854657E-1,2.419355959E-1,7.257421984E-1
7.118248833E0,4.410868883E-1,-4.902031422E-1,2.406495512E-1,7.019750495E-1
7.128282833E0,5.139729977E-1,-4.010625780E-1,2.153411955E-1,6.865793940E-1
7.138317833E0,6.231274605E-1,-3.026353419E-1,1.701060832E-1,7.133106348E-1
7.148351833E0,7.090705037E-1,-2.315866500E-1,1.221257150E-1,7.558624518E-1
7.158386833E0,7.512369156E-1,-1.756911576E-1,7.975269109E-2,7.756189644E-1
7.168420833E0,7.373491526E-1,-1.153179556E-1,3.405370936E-2,7.470887891E-1
7.178454833E0,6.734524369E-1,-6.380362809E-2,-2.071712725E-2,6.767852592E-1
7.188489833E0,6.043876410E-1,-9.639470954E-4,-1.178258359E-1,6.157664146E-1
7.198523833E0,5.022767186E-1,3.488859162E-2,-1.995236278E-1,5.415799054E-1
7.208558833E0,3.766957223E-1,2.845358802E-3,-2.285607457E-1,4.406220351E-1
7.218592833E0,2.469906956E-1,-5.356252193E-2,-2.164127380E-1,3.327278477E-1
7.228626833E0,1.459338516E-1,-6.625488400E-2,-1.870170236E-1,2.462960938E-1
7.238661833E0,8.131758869E-2,-5.902546272E-2,-1.542542875E-1,1.840949230E-1
7.248695833E0,5.685126036E-2,-4.213790968E-2,-1.092051864E-1,1.301285594E-1
7.258730833E0,5.524723604E-2,-4.000604898E-2,-6.027306244E-2,9.102517839E-2
7.268764833E0,7.475768775E-2,-2.246228792E-2,-1.264176425E-2,7.907642164E-2
7.278798833E0,1.129932255E-1,-1.070336532E-2,1.517548598E-2,1.145090669E-1
7.288833833E0,1.302957833E-1,-2.964334190E-2,3.261440247E-2,1.375478757E-1
7.298867833E0,1.272336692E-1,-5.967287719E-2,5.939861014E-2,1.525695046E-1
7.308902833E0,1.238320991E-1,-8.116273582E-2,8.026959747E-2,1.684190807E-1
7.318936833E0,1.269426644E-1,-1.042584702E-1,9.784566611E-2,1.912015770E-1
7.328970833E0,1.390366852E-1,-1.356159896E-1,1.062080488E-1,2.213663165E-1
7.339005833E0,1.648107469E-1,-1.412938386E-1,1.001102105E-1,2.390577030E-1
7.349039833E0,1.920094788E-1,-1.450512111E-1,8.418092132E-2,2.549390541E-1
7.359074833E0,2.195447087E-1,-1.505876482E-1,7.060492039E-2,2.754297981E-1
7.369108833E0,2.450957894E-1,-1.218544841E-1,5.772369355E-2,2.797364583E-1
7.379143833E0,2.614539862E-1,-7.229731232E-2,5.518223718E-2,2.768215446E-1
7.389177833E0,2.605722249E-1,-4.609585926E-2,5.213477090E-2,2.697049257E-1
7.399211833E0,2.461687922E-1,-4.821333662E-2,5.598889664E-2,2.570182030E-1
7.409247083E0,2.200594246E-1,-6.514342874E-2,5.393294245E-2,2.357510954E-1
7.419281083E0,1.867315620E-1,-8.750146627E-2,4.294846952E-2,2.106412920E-1
7.429316083E0,1.436720490E-1,-1.266243756E-1,3.792633861E-2,1.952275527E-1
7.439350083E0,9.778098017E-2,-1.403124928E-1,5.491677672E-2,1.796234063E-1
7.449384083E0,5.128505081E-2,-1.359947026E-1,6.960883737E-2,1.611524303E-1
7.459419083E0,1.317255199E-2,-1.447325349E-1,6.694940478E-2,1.600101421E-1
7.469453083E0,-2.500785515E-2,-1.458011568E-1,4.829609022E-2,1.556145317E-1
7.479488083E0,-5.730933324E-2,-1.097816303E-1,2.656842582E-2,1.266579934E-1
7.489522083E0,-8.292121440E-2,-6.720092893E-2,1.666731760E-2,1.080263492E-1
7.499556083E0,-9.482954443E-2,-3.269169107E-2,1.273276377E-2,1.011113863E-1
7.509591083E0,-9.778725356E-2,-4.536324181E-3,1.504519023E-2,9.904182422E-2
7.519625083E0,-9.764530510E-2,1.139976550E-2,2.642807364E-2,1.017988376E-1
7.529660083E0,-1.045349687E-1,-9.056920186E-3,4.277848825E-2,1.133118994E-1
7.539694083E0,-1.082436889E-1,-3.648135439E-2,5.379518494E-2,1.262596821E-1
7.549729083E0,-9.755256027E-2,-4.018013924E-2,5.149354786E-2,1.173990250E-1
7.559763083E0,-7.785475254E-2,-1.818589121E-2,3.866590187E-2,8.880957775E-2
7.569797083E0,-5.788404495E-2,1.886236854E-2,1.820237190E-2,6.354272538E-2
7.579832083E0,-4.018653929E-2,3.677239269E-2,-8.734437637E-3,5.516753760E-2
7.589866083E0,-2.056730166E-2,3.409155086E-2,-2.495681122E-2,4.699031989E-2
7.599901083E0,-3.247433808E-3,8.793381974E-3,-2.221775055E-2,2.411426616E-2
7.609935083E0,-9.489554912E-3,-3.729625791E-2,-1.990285143E-2,4.332650461E-2
7.619969083E0,-1.606862620E-2,-6.386502087E-2,-1.449370570E-2,6.743151447E-2
7.630004083E0,-2.758705802E-2,-5.535765365E-2,-1.046835817E-2,6.273039224E-2
7.640038083E0,-3.438264877E-2,-3.286645934E-2,-1.474140026E-2,4.979638107E-2
7.650073083E0,-3.933186457E-2,-3.006028570E-2,-9.641979821E-3,5.043395802E-2
7.660107083E0,-3.806579858E-2,-2.317548171E-2,6.773745641E-3,4.507761755E-2
7.670141083E0,-4.158595949E-2,-6.801088806E-3,1.978008635E-2,4.654995867E-2
7.680176083E0,-2.900039218E-2,6.288081408E-3,2.077184618E-2,3.622198653E-2
7.690210083E0,-1.806686260E-2,3.027353249E-2,2.684859931E-2,4.431416905E-2
7.700245083E0,-1.290991623E-2,1.266870741E-2,3.240741789E-2,3.711337790E-2
7.710279083E0,-3.523179516E-2,-6.492524594E-2,2.685917541E-2,7.860014157E-2
7.720314083E0,-7.055969536E-2,-1.810872704E-1,2.451319620E-2,1.958881489E-1
7.730348083E0,-1.280131191E-1,-3.205654323E-1,2.087531611E-2,3.458111246E-1
7.740382083E0,-1.915763915E-1,-3.888874948E-1,-3.945613280E-3,4.335326576E-1
7.750417083E0,-1.760869026E-1,-2.841162980E-1,-5.261515453E-2,3.383740867E-1
7.760451083E0,-1.200356260E-1,-1.626609713E-1,-7.744754106E-2,2.164838671E-1
7.770486083E0,-6.307154149E-2,-3.497451171E-2,-8.699189872E-2,1.129992312E-1
7.780520083E0,-2.847042680E-2,7.343558967E-2,-7.852090895E-2,1.112154853E-1
7.790554083E0,-2.062122524E-2,1.646994799E-1,-6.540930271E-2,1.784083252E-1
7.800589083E0,-2.922696248E-2,2.613037825E-1,-5.057843029E-2,2.677537295E-1
7.810623083E0,-4.238484427E-2,3.426162302E-1,-3.654250503E-2,3.471566086E-1
7.820658083E0,-4.594788700E-2,4.114416242E-1,-2.733942121E-2,4.149010272E-1
7.830692083E0,-3.205457702E-2,4.404621720E-1,-2.444922179E-2,4.423032730E-1
7.840726083E0,1.549190143E-3,4.319840074E-1,-1.707359776E-2,4.323240571E-1
7.850761083E0,3.139058873E-2,3.919045925E-1,-1.266860869E-2,3.933637913E-1
7.860795083E0,5.344449356E-2,3.507629931E-1,-1.388514042E-2,3.550827908E-1
7.870830083E0,6.044965610E-2,3.189790845E-1,-1.244808827E-2,3.248950171E-1
7.880864083E0,5.385220796E-2,3.173415065E-1,-4.764868412E-3,3.219136468E-1
7.890899083E0,4.243563488E-2,3.295384645E-1,8.715126663E-3,3.323737898E-1
7.900933083E0,3.612660617E-2,3.253293633E-1,1.004138030E-2,3.274830616E-1
7.910967083E0,2.820829675E-2,2.924807370E-1,2.684195293E-3,2.938501224E-1
7.921002083E0,1.073156949E-2,2.209998965E-1,-9.424932301E-3,2.214609451E-1
7.931036083E0,-1.312435511E-2,1.021628603E-1,-2.176882513E-2,1.052776352E-1
7.941071083E0,-3.793089837E-2,-1.315307431E-2,-3.841650859E-2,5.556603771E-2
7.951105083E0,-4.520845413E-2,-5.091628432E-2,-5.491765589E-2,8.747697561E-2
7.961139083E0,-4.635920376E-2,-4.026870057E-2,-7.043057680E-2,9.344094481E-2
7.971174083E0,-5.295938253E-2,-5.680041760E-2,-6.197909638E-2,9.935991157E-2
7.981208083E0,-7.821813226E-2,-1.096154377E-1,-2.073232271E-2,1.362477508E-1
7.991243083E0,-1.032856703E-1,-1.590036452E-1,2.235522494E-2,1.909184249E-1
8.001277083E0,-1.041911468E-1,-1.512514502E-1,2.708020434E-2,1.856505689E-1
8.011312083E0,-6.588931382E-2,-7.360193133E-2,-5.846950808E-4,9.878758950E-2
8.021346083E0,-2.903355658E-2,1.463711634E-2,-3.046189994E-2,4.455468472E-2
8.031380083E0,-1.711164601E-2,4.926934466E-2,-4.457852617E-2,6.861138206E-2
8.041415083E0,-2.811742574E-2,3.544780612E-2,-3.143183142E-2,5.509171095E-2
8.051449083E0,-6.520500779E-2,-9.875921533E-3,-1.187930163E-2,6.701003413E-2
8.061484083E0,-1.003986821E-1,-2.731509879E-2,-8.551947773E-3,1.043989741E-1
8.071518083E0,-1.177955121E-1,-4.416204244E-2,-2.625158802E-2,1.285115346E-1
8.081552083E0,-9.716187418E-2,-7.461236417E-2,-5.375618488E-2,1.337802754E-1
8.091587083E0,-5.018770322E-2,-8.711414039E-2,-7.665696740E-2,1.264277251E-1
8.101621083E0,2.476837486E-3,-8.570612967E-2,-8.943374455E-2,1.238953996E-1
8.111656083E0,2.723777294E-2,-5.481211841E-2,-9.006790817E-2,1.088967065E-1
8.121690083E0,1.533584017E-2,-5.003815517E-3,-7.632120699E-2,7.800738939E-2
8.131725083E0,-1.884090528E-2,5.309110135E-2,-6.270433217E-2,8.429399758E-2
8.141759083E0,-6.522864103E-2,1.018570364E-1,-5.313985422E-2,1.321116027E-1
8.151793083E0,-1.007767096E-1,1.674220860E-1,-5.353926495E-2,2.026142961E-1
8.161828083E0,-1.240905523E-1,2.199087292E-1,-6.525583565E-2,2.607999970E-1
8.171862083E0,-1.322882921E-1,2.451358438E-1,-7.688454539E-2,2.889688693E-1
8.181897083E0,-1.300903857E-1,2.370970845E-1,-7.989072055E-2,2.819947928E-1
8.191931083E0,-1.239127219E-1,1.938370913E-1,-8.314011246E-2,2.446210517E-1
8.201965083E0,-1.046905592E-1,1.456730217E-1,-8.891171217E-2,2.002149719E-1
8.212000083E0,-9.140131623E-2,1.315211207E-1,-1.000841409E-1,1.888619629E-1
8.222034083E0,-1.002291664E-1,1.555359215E-1,-1.170862913E-1,2.189669114E-1
8.232069083E0,-1.279966682E-1,2.136591524E-1,-1.459928453E-1,2.886993096E-1
8.242103083E0,-1.647083461E-1,2.799068987E-1,-1.689503491E-1,3.660886938E-1
8.252137083E0,-2.046219558E-1,3.020749092E-1,-1.766567379E-1,4.053726663E-1
8.262172083E0,-2.419006228E-1,2.756278813E-1,-1.707115024E-1,4.045108866E-1
8.272206083E0,-2.518126965E-1,2.489652187E-1,-1.558441967E-1,3.868859365E-1
8.282241083E0,-2.317745388E-1,2.439028174E-1,-1.423672736E-1,3.653443057E-1
8.292275083E0,-1.906484067E-1,2.241366208E-1,-1.379341781E-1,3.249767334E-1
8.302310083E0,-1.567506194E-1,1.583927572E-1,-1.195003167E-1,2.528623102E-1
8.312344083E0,-1.348043233E-1,1.023387164E-1,-8.064026386E-2,1.874787204E-1
8.322378083E0,-1.131198034E-1,5.459649116E-2,-5.227040499E-2,1.360480136E-1
8.332413083E0,-7.226943225E-2,2.237269655E-2,-4.453805089E-2,8.778978508E-2
8.342447083E0,-1.667248458E-2,1.261551515E-3,-3.628518060E-2,3.995219124E-2
8.352482083E0,3.136974201E-2,-3.954998031E-2,-2.131648362E-2,5.479647918E-2
8.362516083E0,7.974046469E-2,-9.259083122E-2,-7.178296335E-3,1.224056031E-1
8.372550083E0,1.126323640E-1,-1.389620155E-1,-2.024806105E-3,1.788870901E-1
8.382585083E0,1.288848519E-1,-1.525843441E-1,-8.191888221E-3,1.999009609E-1
8.392619083E0,1.212921068E-1,-1.436880231E-1,-1.589222811E-2,1.887076736E-1
8.402653125E0,1.002318338E-1,-1.272983998E-1,-2.438851073E-2,1.638478030E-1
8.412687125E0,6.079048291E-2,-9.993907809E-2,-2.216710337E-2,1.190574761E-1
8.422721125E0,1.961524598E-3,-6.416776031E-2,-8.369266056E-3,6.474097355E-2
8.432756125E0,-6.787201762E-2,-1.465669554E-2,5.882244091E-3,6.968522294E-2
8.442790125E0,-1.454099566E-1,4.256930947E-2,8.589880541E-3,1.517563430E-1
8.452825125E0,-2.030016184E-1,1.151341051E-1,-2.924556844E-3,2.333968129E-1
8.462859125E0,-2.367547899E-1,2.031646371E-1,-2.084043995E-2,3.126707922E-1
8.472894125E0,-2.488148510E-1,2.813038826E-1,-4.420801997E-2,3.781468676E-1
8.482928125E0,-2.494265735E-1,3.177542984E-1,-6.167702377E-2,4.086385506E-1
8.492962125E0,-2.536187768E-1,3.318781555E-1,-7.765666395E-2,4.248483865E-1
8.502997125E0,-2.584324479E-1,3.373360336E-1,-1.078499854E-1,4.384227971E-1
8.513031125E0,-2.440153509E-1,3.066900074E-1,-1.479547173E-1,4.189186682E-1
8.523066125E0,-2.260395437E-1,2.641473413E-1,-1.799435467E-1,3.914682276E-1
8.533100125E0,-2.122674286E-1,2.154197246E-1,-2.022082359E-1,3.638011677E-1
8.543135125E0,-2.064601332E-1,1.887210011E-1,-2.154963464E-1,3.531006629E-1
8.553169125E0,-2.244334817E-1,1.889560968E-1,-2.248591632E-1,3.696436628E-1
8.563203125E0,-2.486048639E-1,1.833480000E-1,-2.250335962E-1,3.821792601E-1
8.573238125E0,-2.688953876E-1,1.748036146E-1,-2.276213169E-1,3.932842447E-1
8.583272125E0,-2.908622324E-1,1.481155455E-1,-2.231922150E-1,3.954160061E-1
8.593307125E0,-2.969051301E-1,1.250160187E-1,-2.009717971E-1,3.796989919E-1
8.603341125E0,-2.894735932E-1,1.367839873E-1,-1.673201025E-1,3.612489959E-1
8.613375125E0,-2.663176060E-1,7.815734148E-1,-1.482962668E-1,8.389123034E-1
8.623410125E0,-3.083569407E-1,1.306834698E0,-1.088889465E-1,1.347129442E0
8.633444125E0,-3.727784753E-1,1.480507970E0,-6.265426427E-2,1.528003010E0
8.643479125E0,-4.148260653E-1,1.271086335E0,-2.012438513E-2,1.337215812E0
8.653513125E0,-3.829286397E-1,9.490070939E-1,6.802496035E-3,1.023374360E0
8.663547125E0,-3.075047433E-1,7.222325206E-1,6.443768274E-3,7.849971357E-1
8.673582125E0,-2.269954979E-1,6.219514012E-1,-1.365403552E-2,6.622212125E-1
8.683616125E0,-1.745557338E-1,6.094316244E-1,-2.988919802E-2,6.346416100E-1
8.693651125E0,-1.515904963E-1,6.247974038E-1,-2.527340874E-2,6.434207174E-1
8.703685125E0,-1.573205441E-1,6.065102816E-1,8.632625453E-3,6.266410436E-1
8.713720125E0,-1.785729080E-1,5.184845328E-1,5.359897390E-2,5.509876081E-1
8.723754125E0,-2.054436803E-1,4.158726931E-1,9.441111982E-2,4.733610273E-1
8.733788125E0,-2.086186856E-1,3.174079359E-1,1.049841195E-1,3.940700687E-1
8.743823125E0,-1.762982905E-1,2.558641732E-1,7.940658927E-2,3.207069827E-1
8.753857125E0,-1.221323311E-1,2.440124154E-1,1.758523844E-2,2.734366577E-1
8.763892125E0,-5.130929500E-2,2.684634328E-1,-5.888929218E-2,2.795947196E-1
8.773926125E0,1.323167887E-2,3.075699210E-1,-1.200353950E-1,3.304282520E-1
8.783961125E0,5.977867544E-2,3.033378720E-1,-1.382487565E-1,3.386739927E-1
8.793995125E0,8.637706190E-2,2.287169397E-1,-1.162112951E-1,2.706981722E-1
8.804029125E0,9.249540418E-2,1.264225245E-1,-8.648695797E-2,1.789358779E-1
8.814064125E0,7.782059163E-2,3.242407739E-2,-5.920261517E-2,1.030160906E-1
8.824098125E0,5.046700314E-2,-4.541905597E-2,-3.858362138E-2,7.809292471E-2
8.834133125E0,2.179521509E-2,-1.203367189E-1,-2.577029355E-2,1.249802598E-1
8.844167125E0,-8.023931645E-3,-2.240213007E-1,-1.401376911E-2,2.246025653E-1
8.854201125E0,-3.896480426E-2,-3.102878332E-1,-9.602773935E-3,3.128721922E-1
8.864236125E0,-6.175081432E-2,-3.641793132E-1,-1.899840496E-2,3.698657521E-1
8.874270125E0,-8.698613197E-2,-4.042027295E-1,-4.196443781E-2,4.155808558E-1
8.884305125E0,-1.248493567E-1,-4.009235799E-1,-7.003016770E-2,4.257127003E-1
8.894339125E0,-1.670679897E-1,-3.639317453E-1,-8.909312636E-2,4.102384838E-1
8.904374125E0,-1.962341219E-1,-3.296696544E-1,-9.586421400E-2,3.954489337E-1
8.914408125E0,-2.271912396E-1,-3.690988421E-1,-9.820488095E-2,4.444029852E-1
8.924442125E0,-2.421891093E-1,-4.374374151E-1,-9.917134047E-2,5.097470074E-1
8.934477125E0,-2.286718339E-1,-4.707513750E-1,-9.665904194E-2,5.322035654E-1
8.944511125E0,-1.864000112E-1,-4.667896628E-1,-8.626845479E-2,5.099801955E-1
8.954546125E0,-1.346497238E-1,-4.609417617E-1,-6.683856994E-2,4.848352816E-1
8.964580125E0,-7.688762248E-2,-4.643338323E-1,-4.107753932E-2,4.724457413E-1
8.974614125E0,-4.963630810E-3,-4.528542757E-1,1.305069076E-3,4.528833579E-1
8.984649125E0,8.085460961E-2,-4.335929751E-1,3.987216949E-2,4.428658102E-1
8.994683125E0,1.727600992E-1,-4.472534955E-1,7.589840889E-2,4.854300254E-1
9.004718125E0,2.568190396E-1,-4.965520799E-1,9.131971002E-2,5.664444162E-1
9.014752125E0,3.316539526E-1,-5.491713285E-1,9.550572932E-2,6.486176352E-1
9.024787125E0,3.876064420E-1,-5.871616006E-1,8.478836715E-2,7.086512303E-1
9.034821125E0,4.180244505E-1,-5.737752318E-1,6.870733947E-2,7.132202720E-1
9.044855125E0,4.357379377E-1,-4.866781533E-1,7.294522971E-2,6.573006783E-1
9.054890125E0,4.224218428E-1,-4.110926390E-1,1.144468635E-1,6.004460473E-1
9.064924125E0,3.888556361E-1,-3.679403663E-1,1.581464112E-1,5.582106289E-1
9.074959125E0,3.423011899E-1,-3.485195935E-1,1.689524502E-1,5.168954847E-1
9.084993125E0,2.780087590E-1,-3.466130197E-1,1.259056479E-1,4.618243039E-1
9.095027125E0,1.814506501E-1,-3.800871670E-1,5.771235377E-2,4.251132893E-1
9.105062125E0,-2.381008863E-2,-5.707756281E-1,-1.787055656E-2,5.715514804E-1
9.115096125E0,-2.742130458E-1,-6.525504589E-1,-1.085874811E-1,7.161048366E-1
9.125131125E0,-3.729923666E-1,-3.112368584E-1,-1.462597549E-1,5.073298763E-1
9.135165125E0,-4.127763510E-1,2.792414837E-2,-1.229992434E-1,4.316165982E-1
9.145200125E0,-4.048108459E-1,2.175721079E-1,-5.324599519E-2,4.626495208E-1
9.155234125E0,-3.487390280E-1,2.727978230E-1,-8.671975229E-4,4.427621414E-1
9.165268125E0,-2.595665455E-1,2.684648633E-1,-2.098643221E-3,3.734334997E-1
9.175303125E0,-1.738457829E-1,2.096494734E-1,-4.910420626E-3,2.723956133E-1
9.185337125E0,-9.975796938E-2,8.184729517E-2,1.467819419E-2,1.298694790E-1
9.195372125E0,-3.139430657E-2,-4.554875195E-2,4.207873344E-2,6.950475593E-2
9.205406125E0,4.756442457E-2,-5.867973343E-2,6.652015448E-2,1.006509640E-1
9.215440125E0,1.225362644E-1,2.599581890E-2,9.473009408E-2,1.570500220E-1
9.225475125E0,1.824009269E-1,1.454050243E-1,1.036338359E-1,2.552502521E-1
9.235509125E0,2.262084037E-1,2.699515820E-1,9.388300031E-2,3.644970730E-1
9.245544125E0,2.376221716E-1,3.483273387E-1,6.822317839E-2,4.271424041E-1
9.255578125E0,2.213075906E-1,3.663477302E-1,3.670407087E-2,4.295752529E-1
9.265613125E0,1.808903962E-1,3.263883293E-1,1.825502142E-2,3.736093183E-1
9.275647125E0,1.264687628E-1,2.623967826E-1,2.690423839E-2,2.925239435E-1
9.285681125E0,7.104971260E-2,1.993938386E-1,4.149197042E-2,2.157024528E-1
9.295716125E0,3.314900398E-2,1.341032535E-1,4.207686335E-2,1.444056837E-1
9.305750125E0,-1.484339708E-3,5.390428379E-2,2.343873121E-2,5.879837750E-2
9.315785125E0,-1.625335962E-2,-3.472470678E-3,8.010836318E-3,1.845002032E-2
9.325819125E0,-1.580621488E-2,-1.572860405E-2,8.973835036E-3,2.403653739E-2
9.335854125E0,-8.341186680E-3,-1.926974207E-2,1.863093115E-2,2.807151493E-2
9.345888125E0,3.535180353E-3,-5.100237206E-2,1.839204691E-2,5.433237382E-2
9.355922125E0,3.236244898E-3,-1.262795180E-1,-1.367681194E-2,1.270592190E-1
9.365957125E0,-3.646149999E-4,-2.046062797E-1,-5.850579962E-2,2.128069342E-1
9.375991125E0,-1.480234694E-2,-2.560490370E-1,-9.124717116E-2,2.722246592E-1
9.386026125E0,-4.714271054E-2,-3.085884154E-1,-9.373030066E-2,3.259365192E-1
9.396060125E0,-8.695834875E-2,-3.481849730E-1,-5.505887792E-2,3.630785175E-1
9.406094125E0,-1.087083817E-1,-3.242112100E-1,-2.091848291E-2,3.425901398E-1
9.416129125E0,-9.431421757E-2,-2.534006834E-1,-1.339365076E-2,2.707147352E-1
9.426163125E0,-6.828421354E-2,-2.076600939E-1,-3.489707783E-2,2.213667872E-1
9.436198125E0,-4.468421265E-2,-1.983155161E-1,-5.805685744E-2,2.114150456E-1
9.446232125E0,-2.909140289E-2,-2.025872171E-1,-5.845872685E-2,2.128504475E-1
9.456267125E0,-1.240849122E-2,-1.814380139E-1,-3.680104017E-2,1.855479456E-1
9.466301125E0,2.638102276E-3,-1.396351755E-1,-2.345913649E-2,1.416166406E-1
9.476335125E0,1.834422909E-2,-1.200066879E-1,-3.463336080E-2,1.262441506E-1
9.486370125E0,4.654897004E-2,-7.960866392E-2,-4.010775313E-2,1.005633027E-1
9.496404125E0,7.286745310E-2,-4.521597549E-2,-1.646520756E-2,8.732269591E-2
9.506439125E0,7.894665003E-2,-4.954121634E-2,2.220016345E-2,9.581102716E-2
9.516473125E0,7.946377248E-2,-8.219533414E-2,4.824368283E-2,1.240887466E-1
9.526507125E0,6.863375753E-2,-1.039062217E-1,4.977393523E-2,1.341064510E-1
9.536542125E0,8.248512447E-2,-6.112462282E-2,3.187509999E-2,1.074990106E-1
9.546576125E0,1.072671637E-1,-2.882620320E-3,8.620111272E-3,1.076515686E-1
9.556611125E0,1.349277049E-1,2.684291825E-2,-5.148837809E-3,1.376682184E-1
9.566645125E0,1.499082446E-1,-1.520173717E-2,-6.014365237E-3,1.507970398E-1
9.576680125E0,1.277737021E-1,-1.521120369E-1,1.105496474E-2,1.989633207E-1
9.586714125E0,1.356698200E-2,-4.154278338E-1,2.759079821E-2,4.165640410E-1
9.596748125E0,-1.210374981E-1,-5.184908509E-1,2.051524445E-2,5.328261571E-1
9.606783125E0,-1.562402248E-1,-3.032113314E-1,7.189053576E-3,3.411741517E-1
9.616817125E0,-1.508899927E-1,-8.429807425E-2,7.261423394E-3,1.729933048E-1
9.626852125E0,-1.249686480E-1,5.712771788E-3,1.340160705E-2,1.258149506E-1
9.636886125E0,-9.677289426E-2,1.438997500E-2,3.858768614E-3,9.791299474E-2
9.646921125E0,-5.889475346E-2,3.257403895E-2,-8.895642124E-3,6.788808767E-2
9.656955125E0,-2.986823767E-2,1.670093392E-3,-1.692087762E-2,3.436883666E-2
9.666989125E0,-6.459318101E-3,-2.909314446E-2,-2.252017334E-2,3.735360829E-2
9.677024125E0,1.255092025E-2,2.321436303E-3,4.486477468E-3,1.352934387E-2
9.687058125E0,1.984664984E-2,9.405215830E-2,5.011974275E-2,1.084051964E-1
9.697093125E0,2.480006777E-2,2.113692611E-1,8.591734618E-2,2.295077304E-1
9.707127125E0,3.308809176E-2,3.361367583E-1,9.863314778E-2,3.518682139E-1
9.717161125E0,4.689824209E-2,4.265664518E-1,9.162697196E-2,4.388096226E-1
9.727196125E0,5.259793624E-2,4.379863441E-1,7.606212795E-2,4.476427457E-1
9.737230125E0,3.886275366E-2,3.924003839E-1,5.087161809E-2,3.975880990E-1
9.747265125E0,2.169415355E-2,3.446949124E-1,2.205941081E-2,3.460806793E-1
9.757299125E0,-4.272941500E-3,3.102317452E-1,-6.019021850E-3,3.103195489E-1
9.767334125E0,-3.740532696E-2,2.757573724E-1,-2.503425814E-2,2.794065156E-1
9.777368125E0,-7.420288026E-2,1.990291625E-1,-1.955707371E-2,2.133099953E-1
9.787402125E0,-1.114767492E-1,1.174307168E-1,6.498229224E-3,1.620471099E-1
9.797437125E0,-1.254910529E-1,6.786554307E-2,2.377982251E-2,1.446347684E-1
9.807471125E0,-1.092082113E-1,2.271724306E-2,1.957788691E-2,1.132510495E-1
9.817506125E0,-8.324245363E-2,-5.803841725E-2,1.003943570E-2,1.019733016E-1
9.827540125E0,-5.218626559E-2,-1.493891031E-1,-9.250371717E-3,1.585120809E-1
9.837574125E0,-4.634242132E-2,-2.257989347E-1,-2.193760872E-2,2.315470527E-1
9.847609125E0,-6.217917427E-2,-2.747409046E-1,-1.937431656E-2,2.823547033E-1
9.857643125E0,-8.151751012E-2,-2.474953681E-1,-7.974188775E-3,2.606964698E-1
9.867678125E0,-8.863534033E-2,-1.679020077E-1,-9.429606609E-3,1.900953056E-1
9.877712125E0,-8.126232028E-2,-9.039290994E-2,-2.198847383E-2,1.235230175E-1
9.887747125E0,-6.909939647E-2,-4.464086518E-2,-5.010452867E-2,9.632236100E-2
9.897781125E0,-4.684722051E-2,-3.583893552E-2,-8.280722052E-2,1.016667455E-1
9.907815125E0,-2.619520575E-2,-2.518096194E-2,-1.023385748E-1,1.085976682E-1
9.917850125E0,-1.660950109E-2,8.896944346E-4,-8.790643513E-2,8.946624179E-2
9.927884125E0,-1.597486809E-2,1.476476341E-2,-5.389014259E-2,5.811490444E-2
9.937919125E0,-4.281900078E-2,-3.081827424E-2,-3.985698335E-3,5.290669756E-2
9.947953125E0,-7.218381763E-2,-7.520437986E-2,3.255207464E-2,1.092054936E-1
9.957988125E0,-7.825668156E-2,-4.889750108E-2,4.507897794E-2,1.026995038E-1
9.968022125E0,-5.037604645E-2,1.904719323E-2,2.204263397E-2,5.819294921E-2
9.978056125E0,-1.384140365E-2,5.506526306E-2,2.492434811E-3,5.683291196E-2
9.988091125E0,1.218167506E-2,3.902930394E-2,-2.204582561E-3,4.094557311E-2
9.998125125E0,3.585059568E-2,1.401512232E-2,5.937565584E-3,3.894795950E-2
1.000816012E1,5.026974902E-2,-1.700830646E-2,6.244361401E-3,5.343521502E-2
1.001819413E1,4.538829625E-2,-7.104291767E-2,-5.574879237E-3,8.448830017E-2
1.002822913E1,2.628810704E-2,-1.084155887E-1,-4.740511067E-3,1.116578564E-1
1.003826312E1,8.737803437E-3,-9.899064153E-2,8.099323139E-3,9.970504178E-2
1.004829713E1,-6.922382861E-3,-9.411332756E-2,1.495696325E-2,9.554553134E-2
1.005833213E1,-2.317432687E-2,-1.365101635E-1,1.495643333E-2,1.392686938E-1
1.006836612E1,-4.841523618E-2,-1.993703395E-1,9.622387588E-3,2.053902571E-1
1.007840113E1,-6.852082908E-2,-2.320296913E-1,-3.743821289E-3,2.419646625E-1
1.008843513E1,-8.738745749E-2,-2.084093243E-1,-1.129840966E-2,2.262712272E-1
1.009846913E1,-1.040364802E-1,-1.505082101E-1,-1.317780279E-2,1.834392679E-1
1.010850413E1,-1.198367476E-1,-1.047644168E-1,7.135116612E-4,1.591758091E-1
1.011853813E1,-1.349197626E-1,-6.482084841E-2,1.987981424E-2,1.509976548E-1
1.012857312E1,-1.339594275E-1,-8.334936574E-3,3.060329892E-2,1.376632169E-1
1.013860713E1,-1.042962521E-1,7.176249474E-2,1.838078536E-2,1.279273901E-1
1.014864213E1,-5.336143449E-2,1.154604405E-1,-1.681102253E-2,1.283010775E-1
1.015867612E1,-1.091751829E-2,8.544127643E-2,-4.830869287E-2,9.875795528E-2
1.016871012E1,2.616673335E-2,4.186317325E-2,-6.651273370E-2,8.283216134E-2
1.017874513E1,5.738323554E-2,4.018101469E-2,-6.501337141E-2,9.557242345E-2
1.018877913E1,7.648742944E-2,7.195013016E-2,-5.311063677E-2,1.176770489E-1
1.019881413E1,7.656098902E-2,1.054694057E-1,-3.534861654E-2,1.350366812E-1
1.020884813E1,4.157983884E-2,9.171897173E-2,-1.529661193E-2,1.018589177E-1
1.021888312E1,-9.525353089E-3,9.082920104E-2,1.259313896E-2,9.219144897E-2
1.022891713E1,-4.253523424E-2,1.375250667E-1,3.160118684E-2,1.473805453E-1
1.023895113E1,-5.461146683E-2,1.650698930E-1,1.964132674E-2,1.749750371E-1
1.024898612E1,-5.756517872E-2,1.067770272E-1,8.874166757E-3,1.216299066E-1
1.025902012E1,-4.823985323E-2,7.331934292E-3,2.916409168E-3,4.888093844E-2
1.026905513E1,-2.037493326E-2,-5.730644614E-2,-1.015215646E-3,6.082924738E-2
1.027908913E1,8.513653651E-3,-1.181641966E-1,-2.476291731E-3,1.184963783E-1
1.028912413E1,2.044807747E-2,-1.756349504E-1,-9.069745429E-3,1.770537205E-1
1.029915813E1,2.561819740E-2,-2.197672874E-1,5.939163268E-3,2.213350996E-1
1.030919213E1,-3.097252920E-5,-2.758052349E-1,5.088107288E-2,2.804592878E-1
1.031922713E1,-4.940551892E-2,-3.612221181E-1,1.101674959E-1,3.808663822E-1
1.032926113E1,-8.799125999E-2,-4.030483961E-1,1.480690837E-1,4.383091660E-1
1.033929613E1,-1.033410579E-1,-3.771204352E-1,1.462201774E-1,4.174680074E-1
1.034933012E1,-1.039469317E-1,-3.538377583E-1,1.171509698E-1,3.869502210E-1
1.035936513E1,-1.087705791E-1,-3.462919295E-1,8.849815279E-2,3.736054903E-1
1.036939913E1,-9.060994536E-2,-2.858671844E-1,6.495820731E-2,3.068383581E-1
1.037943312E1,-6.247903407E-2,-1.704706401E-1,5.030170083E-2,1.883988586E-1
1.038946813E1,-3.127797320E-2,-4.239923134E-2,4.959809408E-2,7.236005364E-2
1.039950213E1,-2.038273495E-3,6.218682230E-2,4.307581484E-2,7.567616038E-2
1.040953771E1,2.438534424E-2,1.621906459E-1,2.153616585E-2,1.654214529E-1
1.041957171E1,4.818647727E-2,2.575297952E-1,2.479852410E-3,2.620108426E-1
1.042960571E1,6.368767470E-2,3.282793164E-1,-4.808153957E-3,3.344346690E-1
1.043964071E1,7.826388627E-2,3.652192056E-1,-1.137770712E-2,3.736840327E-1
1.044967471E1,7.807560265E-2,3.573261201E-1,-2.856656676E-3,3.657675715E-1
1.045970971E1,7.105471194E-2,3.318428695E-1,2.337015234E-2,3.401685261E-1
1.046974371E1,6.047743186E-2,3.215667903E-1,4.140587896E-2,3.298138372E-1
1.047977871E1,5.686165765E-2,3.342370689E-1,3.677996993E-2,3.410284922E-1
1.048981271E1,5.952668563E-2,3.494365215E-1,1.103652176E-2,3.546422334E-1
1.049984671E1,7.477974892E-2,3.590192497E-1,-1.212598942E-2,3.669248862E-1
1.050988171E1,7.058393210E-2,3.432695866E-1,-2.705380693E-2,3.514939672E-1
1.051991571E1,5.860829726E-2,2.965789139E-1,-2.783937193E-2,3.035935034E-1
1.052995071E1,4.033927992E-2,2.410624027E-1,-3.284771368E-2,2.466116619E-1
1.053998471E1,1.682722755E-2,1.858557165E-1,-3.604144230E-2,1.900644325E-1
1.055001971E1,-1.340311300E-2,1.252461672E-1,-1.421071216E-2,1.267603651E-1
1.056005371E1,-4.710888118E-2,7.316965610E-2,2.023887448E-2,8.934571786E-2
1.057008771E1,-7.017771155E-2,3.858131915E-2,3.492860496E-2,8.736954178E-2
1.058012271E1,-7.460673898E-2,7.031635847E-3,2.527817339E-2,7.908600037E-2
1.059015671E1,-6.902129203E-2,-3.500609472E-2,3.399772337E-3,7.746563027E-2
1.060019171E1,-7.552254945E-2,-8.811502904E-2,-1.479194686E-2,1.169902368E-1
1.061022571E1,-8.099374175E-2,-1.328380108E-1,-1.838588342E-2,1.566651334E-1
1.062025971E1,-8.030857146E-2,-1.384699047E-1,-1.620019786E-3,1.600812469E-1
1.063029471E1,-7.938232273E-2,-1.022871286E-1,2.275296487E-2,1.314606680E-1
1.064032871E1,-8.586712182E-2,-7.097778469E-2,2.830165997E-2,1.149434317E-1
1.065036371E1,-8.779072762E-2,-5.777489766E-2,1.338156685E-2,1.059444052E-1
1.066039771E1,-8.646107465E-2,-7.047033310E-2,-7.708071731E-3,1.118078693E-1
1.067043271E1,-8.333665133E-2,-9.712218493E-2,-2.686072700E-2,1.307639664E-1
1.068046671E1,-8.250368387E-2,-1.180240959E-1,-3.134528920E-2,1.473739197E-1
1.069050071E1,-6.580752879E-2,-1.132945865E-1,-2.285220474E-2,1.329981859E-1
1.070053571E1,-4.589481279E-2,-7.691559196E-2,-9.599533514E-4,8.957267238E-2
1.071056971E1,-2.817999758E-2,-9.863857180E-3,1.064450480E-2,3.169721477E-2
1.072060471E1,-1.705410331E-2,5.882833526E-2,8.848999627E-3,6.188634957E-2
1.073063871E1,-1.301595196E-2,1.049233973E-1,9.082292207E-3,1.061170219E-1
1.074067371E1,-2.292337641E-2,1.155124232E-1,8.845870383E-3,1.180967846E-1
1.075070771E1,-3.792096674E-2,9.990151227E-2,1.283874828E-2,1.076250219E-1
1.076074271E1,-4.566903040E-2,1.073722392E-1,1.994099841E-2,1.183727228E-1
1.077077671E1,-4.191983491E-2,1.306525171E-1,1.927440800E-2,1.385599350E-1
1.078081071E1,-2.892447822E-2,1.287222803E-1,4.536143504E-3,1.320099522E-1
1.079084571E1,-7.212259341E-3,9.260874242E-2,-1.988344453E-2,9.499340621E-2
1.080087971E1,9.014323354E-3,3.098497167E-2,-4.599074647E-2,5.618251735E-2
1.081091471E1,2.016923949E-2,-2.471584082E-2,-6.044824794E-2,6.834955514E-2
1.082094871E1,2.789040655E-2,-4.891484231E-2,-7.106161118E-2,9.066581031E-2
1.083098271E1,2.412123606E-2,-6.683392078E-2,-7.205496728E-2,1.011954807E-1
1.084101771E1,7.481801324E-3,-9.473489970E-2,-6.186890975E-2,1.133950641E-1
1.085105171E1,-1.495959237E-2,-1.252587140E-1,-4.700794071E-2,1.346227370E-1
1.086108671E1,-2.389335074E-2,-1.283419281E-1,-3.402176499E-2,1.349074617E-1
1.087112071E1,-2.473837137E-2,-9.826259315E-2,-2.224073932E-2,1.037409018E-1
1.088115571E1,-2.206111141E-2,-5.255118757E-2,-1.682360657E-2,5.942519407E-2
1.089118971E1,-1.502717100E-2,-1.639877632E-2,-1.462037396E-2,2.661749552E-2
1.090122371E1,-1.230407599E-2,-9.332026355E-3,-7.582702674E-3,1.720390600E-2
1.091125871E1,-2.464090288E-2,-4.510905594E-3,-1.133325743E-3,2.507602024E-2
1.092129271E1,-3.518397361E-2,1.831188053E-2,2.432778943E-3,3.973858806E-2
1.093132771E1,-3.184916452E-2,6.512732059E-2,2.554774983E-5,7.249784700E-2
1.094136171E1,-1.329278573E-2,1.287482083E-1,-8.036640473E-3,1.296818680E-1
1.095139671E1,6.209543440E-3,1.823651046E-1,-1.528416667E-2,1.831097909E-1
1.096143071E1,3.421653062E-2,2.181926370E-1,-1.351089682E-2,2.212720997E-1
1.097146471E1,7.309095562E-2,2.572060823E-1,-5.351770669E-3,2.674432613E-1
1.098149971E1,1.180822104E-1,3.066757321E-1,1.425504684E-3,3.286266045E-1
1.099153371E1,1.583508104E-1,3.456116915E-1,5.306795705E-3,3.801980833E-1
1.100156871E1,1.851981282E-1,3.612308502E-1,5.613325629E-3,4.059773187E-1
1.101160271E1,2.015398145E-1,3.493667245E-1,-8.967717295E-4,4.033313888E-1
1.102163771E1,2.028931081E-1,3.161956966E-1,-8.086905815E-3,3.757801617E-1
1.103167171E1,1.971422732E-1,2.703909278E-1,-2.138673328E-2,3.353113808E-1
1.104170571E1,1.675867140E-1,2.315627337E-1,-3.955728188E-2,2.885678168E-1
1.105174071E1,1.376370788E-1,2.333238870E-1,-4.476882145E-2,2.745692063E-1
1.106177471E1,1.053640842E-1,2.585657537E-1,-5.072391406E-2,2.837794120E-1
1.107180971E1,7.629754394E-2,2.982268929E-1,-4.849378392E-2,3.116283716E-1
1.108184371E1,5.630593747E-2,3.321623802E-1,-4.792846367E-2,3.402930253E-1
1.109187871E1,3.307651728E-2,3.283127844E-1,-4.520591348E-2,3.330569246E-1
1.110191271E1,6.216872949E-3,2.947380245E-1,-4.951790348E-2,2.989333962E-1
1.111194671E1,-2.102939412E-2,2.447075993E-1,-5.461306497E-2,2.516080909E-1
1.112198171E1,-3.958944231E-2,1.867785007E-1,-6.199367717E-2,2.007404998E-1
1.113201571E1,-4.749290645E-2,1.295493096E-1,-6.420250982E-2,1.521859456E-1
1.114205071E1,-4.892461002E-2,8.232059330E-2,-5.869429186E-2,1.123179302E-1
1.115208471E1,-3.963896632E-2,4.241126403E-2,-5.107179284E-2,7.731940889E-2
1.116211971E1,-3.045444377E-2,4.155311733E-3,-5.318946764E-2,6.143174447E-2
1.117215371E1,-2.177892998E-2,-3.648186475E-2,-5.705877393E-2,7.114036779E-2
1.118218771E1,-2.366413735E-2,-7.373517752E-2,-6.416562200E-2,1.005688562E-1
1.119222271E1,-2.032320201E-2,-1.005686596E-1,-7.114070654E-2,1.248522645E-1
1.120225671E1,-1.827096194E-2,-1.161450073E-1,-7.396951318E-2,1.389063701E-1
1.121229171E1,-1.662299782E-2,-1.292725354E-1,-7.326324284E-2,1.495166052E-1
1.122232571E1,-2.190065756E-2,-1.339852512E-1,-7.397092134E-2,1.546071911E-1
1.123236071E1,-3.070826270E-2,-1.271196157E-1,-7.743089646E-2,1.519800573E-1
1.124239471E1,-4.960385337E-2,-1.194265559E-1,-7.106906921E-2,1.475603508E-1
1.125242871E1,-7.352888584E-2,-1.133814454E-1,-5.707468837E-2,1.466948168E-1
1.126246371E1,-9.479176998E-2,-9.698698670E-2,-4.929632694E-2,1.442985901E-1
1.127249771E1,-1.141452342E-1,-8.258647472E-2,-4.966197908E-2,1.493853154E-1
1.128253271E1,-1.291633248E-1,-7.053577900E-2,-6.428352743E-2,1.605952443E-1
1.129256671E1,-1.425249428E-1,-6.451303512E-2,-7.980709523E-2,1.756259191E-1
1.130260171E1,-1.567975581E-1,-6.316171587E-2,-9.029882401E-2,1.916474737E-1
1.131263571E1,-1.642078012E-1,-5.671739578E-2,-8.547104895E-2,1.936139591E-1
1.132266971E1,-1.667853445E-1,-3.534598276E-2,-7.590670139E-2,1.866239988E-1
1.133270471E1,-1.636009961E-1,-1.475601830E-2,-6.770762801E-2,1.776720262E-1
1.134273871E1,-1.650648862E-1,1.040396933E-2,-6.287232786E-2,1.769395062E-1
1.135277371E1,-1.668497324E-1,2.832278237E-2,-6.631658971E-2,1.817660674E-1
1.136280771E1,-1.738177389E-1,2.879221737E-2,-6.447088718E-2,1.876115493E-1
1.137284271E1,-1.700294018E-1,1.471474767E-2,-6.252092123E-2,1.817563943E-1
1.138287671E1,-1.625243425E-1,1.394770388E-2,-5.229491368E-2,1.712993239E-1
1.139291071E1,-1.399633735E-1,3.951565176E-2,-5.385392904E-2,1.550853905E-1
1.140294571E1,-1.203113049E-1,7.046987861E-2,-6.550385803E-2,1.540505414E-1
1.141297983E1,-1.074836627E-1,9.712918848E-2,-7.252528518E-2,1.620084380E-1
1.142301483E1,-1.070359871E-1,1.061686426E-1,-6.873054057E-2,1.656875687E-1
1.143304883E1,-1.148901805E-1,1.006942466E-1,-4.983994737E-2,1.606956914E-1
1.144308383E1,-1.292331815E-1,7.991147041E-2,-3.376670554E-2,1.556510479E-1
1.145311783E1,-1.469325423E-1,5.896118283E-2,-2.239500731E-2,1.598972465E-1
1.146315183E1,-1.659259796E-1,4.847643524E-2,-1.813108101E-2,1.738106199E-1
1.147318683E1,-1.918369383E-1,4.901572689E-2,-1.875665784E-2,1.988863107E-1
1.148322083E1,-2.076569349E-1,3.862684593E-2,-2.344861813E-2,2.125165253E-1
1.149325583E1,-2.206704766E-1,2.834970690E-2,-2.764149942E-2,2.241945976E-1
1.150328983E1,-2.286513597E-1,2.393656969E-2,-3.316722810E-2,2.322810123E-1
1.151332483E1,-2.418132424E-1,3.235109150E-2,-3.864162043E-2,2.470089314E-1
1.152335883E1,-2.737425566E-1,1.114377379E-1,-2.799443528E-2,2.968788391E-1
1.153339283E1,-3.179795146E-1,1.383135617E-1,-1.694737747E-2,3.471726179E-1
1.154342783E1,-3.695020080E-1,1.385782659E-1,3.035835689E-4,3.946337059E-1
1.155346183E1,-4.241881669E-1,1.534070075E-1,1.813264750E-2,4.514400334E-1
1.156349683E1,-4.762393832E-1,1.484988034E-1,2.655196562E-2,4.995606586E-1
1.157353083E1,-5.142629147E-1,1.301741153E-1,3.276964650E-2,5.314936457E-1
1.158356583E1,-5.289104581E-1,1.261056811E-1,3.438978270E-2,5.448225148E-1
1.159359983E1,-5.269652605E-1,1.332727820E-1,2.357308567E-2,5.440677445E-1
1.160363383E1,-5.073756576E-1,1.325848103E-1,7.102698553E-3,5.244609024E-1
1.161366883E1,-4.787877202E-1,1.295445412E-1,-6.698335055E-3,4.960487243E-1
1.162370283E1,-4.429080784E-1,1.226162910E-1,-1.203750726E-2,4.597251596E-1
1.163373783E1,-3.893234134E-1,9.867154062E-2,-5.198509432E-3,4.016663013E-1
1.164377183E1,-3.362726867E-1,7.454548031E-2,8.098922670E-3,3.445314804E-1
1.165380683E1,-2.704579830E-1,5.583278090E-2,2.617006749E-2,2.773980758E-1
1.166384083E1,-2.034367621E-1,6.781496108E-2,4.712368920E-2,2.195587101E-1
1.167387483E1,-1.390694976E-1,1.030954570E-1,6.412796676E-2,1.846114691E-1
1.168390983E1,-9.175916761E-2,1.309399605E-1,6.408382952E-2,1.722549137E-1
1.169394383E1,-5.528770760E-2,1.329991221E-1,6.450540572E-2,1.578177571E-1
1.170397883E1,-2.898645774E-2,1.334698796E-1,5.498899892E-2,1.472352319E-1
1.171401283E1,-8.186637424E-3,1.505457908E-1,4.217599705E-2,1.565562866E-1
1.172404783E1,-1.719424152E-3,1.827642471E-1,1.552787516E-2,1.834307535E-1
1.173408183E1,-6.705394015E-3,2.104768306E-1,-2.151519759E-3,2.105946048E-1
1.174411583E1,-1.153454930E-2,2.246645093E-1,-7.638227660E-3,2.250900488E-1
1.175415083E1,-6.620750763E-3,2.117764056E-1,-6.508514751E-3,2.119798129E-1
1.176418483E1,2.079395577E-2,1.926825792E-1,-4.076651298E-3,1.938442261E-1
1.177421983E1,6.231157109E-2,1.708055139E-1,-2.093927935E-3,1.818286006E-1
1.178425383E1,9.521652758E-2,1.590975821E-1,-9.867160581E-3,1.856760313E-1
1.179428883E1,1.269701868E-1,1.666279286E-1,-2.398937196E-2,2.108596332E-1
1.180432283E1,1.481126249E-1,1.648509800E-1,-3.165275231E-2,2.238640034E-1
1.181435683E1,1.457527876E-1,1.481111497E-1,-2.812379785E-2,2.096943866E-1
1.182439183E1,1.279520988E-1,1.409923434E-1,-1.678711921E-2,1.911344759E-1
1.183442583E1,1.005258113E-1,1.563281566E-1,-7.932107896E-3,1.860291634E-1
1.184446083E1,6.977002323E-2,1.840854883E-1,-5.788263399E-3,1.969487932E-1
1.185449483E1,4.332590103E-2,2.016285211E-1,-5.192514509E-3,2.062962831E-1
1.186452983E1,1.941563375E-2,2.023997456E-1,-8.718408644E-3,2.035156861E-1
1.187456383E1,7.909713313E-3,2.046730220E-1,-1.553450339E-2,2.054140460E-1
1.188459783E1,8.744282648E-3,2.005525380E-1,-2.339861728E-2,2.021021481E-1
1.189463283E1,2.043848857E-2,1.860212684E-1,-2.597735636E-2,1.889350871E-1
1.190466683E1,4.527338594E-2,1.508988291E-1,-2.962549031E-2,1.603053517E-1
1.191470183E1,7.780070603E-2,1.083782688E-1,-3.206254914E-2,1.372108088E-1
1.192473583E1,1.080193296E-1,8.199108392E-2,-3.150035441E-2,1.392227917E-1
1.193477083E1,1.260044575E-1,5.236208439E-2,-3.349426389E-2,1.405018751E-1
1.194480483E1,1.373142302E-1,2.005061880E-2,-2.342897840E-2,1.407342963E-1
1.195483883E1,1.279846430E-1,2.342431061E-2,-4.277122207E-3,1.301808778E-1
1.196487383E1,1.015706956E-1,3.316991776E-2,6.410078495E-4,1.068515819E-1
1.197490783E1,6.255805492E-2,3.631271422E-2,2.641840838E-3,7.238164666E-2
1.198494283E1,2.505713515E-2,2.649260499E-2,-8.869810030E-3,3.752854475E-2
1.199497683E1,-4.089031834E-3,2.393064275E-2,-2.948427573E-2,3.819317163E-2
1.200501183E1,-9.323392063E-3,4.120410234E-2,-4.205698520E-2,5.961118765E-2
1.201504583E1,6.199907977E-3,6.616032124E-2,-4.546210542E-2,8.051353920E-2
1.202507983E1,2.662672661E-2,8.078344911E-2,-3.681495413E-2,9.268381233E-2
1.203511483E1,5.351852998E-2,7.143948227E-2,-2.333057299E-2,9.226130454E-2
1.204514883E1,7.419792563E-2,3.102613054E-2,-1.717341319E-2,8.223672576E-2
1.205518383E1,8.579306304E-2,-3.477258980E-2,-1.021963265E-2,9.313443810E-2
1.206521783E1,7.848501951E-2,-1.017359570E-1,3.995988984E-3,1.285537676E-1
1.207525283E1,7.513236254E-2,-1.338733882E-1,1.321531925E-2,1.540830965E-1
1.208528683E1,6.176003814E-2,-1.592007726E-1,-6.134208292E-3,1.708707606E-1
1.209532083E1,6.113286316E-2,-1.666309983E-1,-7.468530536E-2,1.925643045E-1
1.210535583E1,6.734227389E-2,-1.366438568E-1,-1.497603506E-1,2.136227704E-1
1.211538983E1,8.296437562E-2,-1.162288636E-1,-2.045061588E-1,2.494293594E-1
1.212542483E1,8.290494978E-2,-1.347780973E-1,-2.387270331E-1,2.864069876E-1
1.213545883E1,5.472204462E-2,-1.875177324E-1,-2.496638298E-1,3.170006783E-1
1.214549383E1,1.020503137E-2,-2.619532347E-1,-2.764319479E-1,3.809701585E-1
1.215552783E1,-4.203580320E-2,-3.144646287E-1,-3.349977732E-1,4.613876022E-1
1.216556283E1,-7.174004614E-2,-3.214211166E-1,-4.170371294E-1,5.313926380E-1
1.217559683E1,-1.056050658E-1,-3.157067597E-1,-4.671170712E-1,5.736039977E-1
1.218563083E1,-1.415377557E-1,-2.608355582E-1,-4.402627945E-1,5.309420429E-1
1.219566583E1,-1.628584862E-1,-1.546121836E-1,-3.487981260E-1,4.148348425E-1
1.220569983E1,-1.713161021E-1,-4.311443493E-2,-2.397227287E-1,2.977835590E-1
1.221573483E1,-1.614144742E-1,2.522280999E-2,-1.529502869E-1,2.237959180E-1
1.222576883E1,-1.504477113E-1,1.721673459E-2,-7.699626684E-2,1.698804135E-1
1.223580383E1,-1.393852085E-1,2.243333496E-2,7.764427457E-3,1.413922812E-1
1.224583783E1,-1.354815364E-1,-8.117544465E-3,9.096238017E-2,1.633869512E-1
1.225587183E1,-1.336231828E-1,-1.065913886E-1,1.607435942E-1,2.346388334E-1
1.226590683E1,-1.351711601E-1,-1.969151199E-1,2.059793770E-1,3.153954830E-1
1.227594083E1,-1.399624646E-1,-2.800632715E-1,2.061319798E-1,3.748537323E-1
1.228597583E1,-1.496209800E-1,-3.244386613E-1,1.753558964E-1,3.979906695E-1
1.229600983E1,-1.559324116E-1,-3.029818535E-1,1.433819830E-1,3.696908351E-1
1.230604483E1,-1.599294245E-1,-2.586047649E-1,1.058381945E-1,3.219558490E-1
1.231607883E1,-1.536984295E-1,-2.017020732E-1,7.933574915E-2,2.657086650E-1
1.232611283E1,-1.477824003E-1,-1.488334388E-1,6.317283213E-2,2.190475680E-1
1.233614783E1,-1.335486025E-1,-1.397573948E-1,4.664658010E-2,1.988548769E-1
1.234618183E1,-1.230850518E-1,-1.673821956E-1,3.419337049E-2,2.105609554E-1
1.235621683E1,-1.107298508E-1,-2.172565460E-1,2.183604054E-2,2.448230367E-1
1.236625083E1,-1.061770394E-1,-2.807835042E-1,1.913705841E-2,3.007975515E-1
1.237628583E1,-9.488577396E-2,-3.163928986E-1,2.248891257E-2,3.310793372E-1
1.238631983E1,-7.947486639E-2,-3.311662078E-1,1.226769947E-2,3.407899764E-1
1.239635383E1,-6.818040460E-2,-3.797696829E-1,-2.329455689E-2,3.865439380E-1
1.240638796E1,-5.406550318E-2,-4.090917408E-1,-7.647774369E-2,4.196760374E-1
1.241642196E1,-3.833500668E-2,-3.938600719E-1,-1.181623414E-1,4.129862805E-1
1.242645696E1,-1.083394140E-2,-2.967098653E-1,-1.408070028E-1,3.286042156E-1
1.243649096E1,2.180176601E-2,-1.314825565E-1,-1.445652544E-1,1.966267847E-1
1.244652596E1,6.100482121E-2,6.856510043E-2,-1.394242793E-1,1.669188152E-1
1.245655996E1,8.486940712E-2,2.360254675E-1,-1.135343686E-1,2.753196150E-1
1.246659396E1,9.116937965E-2,3.144028485E-1,-7.652734965E-2,3.361806689E-1
1.247662896E1,8.212901652E-2,2.953386009E-1,-4.163434729E-2,3.093597960E-1
1.248666296E1,5.842722952E-2,2.033380419E-1,-2.080462687E-2,2.125862953E-1
1.249669796E1,3.536851332E-2,2.481915057E-2,-1.493874937E-2,4.571748245E-2
1.250673196E1,4.677902162E-2,-1.303512454E-1,-3.422436491E-2,1.426570405E-1
1.251676696E1,1.068112031E-1,-8.287027478E-2,-7.213073224E-2,1.532284506E-1
1.252680096E1,1.656745821E-1,4.134353250E-2,-8.479373157E-2,1.906497620E-1
1.253683496E1,1.860863864E-1,1.456182748E-1,-5.764519796E-2,2.432196415E-1
1.254686996E1,1.809736490E-1,2.219950706E-1,-1.380690560E-2,2.867471075E-1
1.255690396E1,1.492287666E-1,2.295850813E-1,1.062813029E-2,2.740282677E-1
1.256693896E1,1.036469638E-1,2.090320736E-1,9.951485321E-3,2.335297261E-1
1.257697296E1,5.931944773E-2,1.813258678E-1,1.204073522E-2,1.911618333E-1
1.258700796E1,1.740602776E-2,1.432347447E-1,1.609080657E-2,1.451829051E-1
1.259704196E1,-8.563522249E-3,1.160135120E-1,2.811497822E-2,1.196784061E-1
1.260707696E1,-1.522149518E-2,1.099682525E-1,4.071485996E-2,1.182472422E-1
1.261711096E1,-2.001598291E-2,9.812410921E-2,5.215446651E-2,1.129117742E-1
1.262714496E1,-3.362726420E-2,4.602221400E-2,6.560330093E-2,8.690586960E-2
1.263717996E1,-6.025834009E-2,-4.255718738E-2,7.949514687E-2,1.084511877E-1
1.264721396E1,-8.591310680E-2,-1.145616099E-1,9.454626590E-2,1.715937667E-1
1.265724896E1,-9.796524048E-2,-1.519643664E-1,1.010630205E-1,2.071330276E-1
1.266728296E1,-9.441398084E-2,-1.403293163E-1,8.909870684E-2,1.911671947E-1
1.267731796E1,-7.243198156E-2,-1.116276383E-1,6.991542131E-2,1.503172902E-1
1.268735196E1,-3.969148546E-2,-8.485890180E-2,4.932372645E-2,1.058738741E-1
1.269738596E1,-1.097621955E-2,-5.398061499E-2,1.341738924E-2,5.669577166E-2
1.270742096E1,2.303233929E-2,-2.113526128E-2,-3.414427489E-2,4.629275786E-2
1.271745496E1,5.927023664E-2,2.031309996E-3,-5.673800036E-2,8.207489176E-2
1.272748996E1,8.271670341E-2,3.629472572E-3,-6.274475902E-2,1.038851812E-1
1.273752396E1,8.415401727E-2,-2.563307434E-2,-4.866196588E-2,1.005332783E-1
1.274755896E1,7.309871167E-2,-6.718803197E-2,-3.165155277E-2,1.042088004E-1
1.275759296E1,5.268425122E-2,-8.885417879E-2,-1.601879671E-2,1.045337135E-1
1.276762796E1,5.187765881E-2,-3.639806807E-2,-1.548875403E-2,6.523812033E-2
1.277766196E1,6.090657413E-2,7.332070172E-2,-1.269403286E-2,9.615963053E-2
1.278769596E1,7.323099673E-2,1.714259982E-1,-4.440505058E-3,1.864654655E-1
1.279773096E1,8.047106862E-2,2.139130086E-1,4.669636022E-3,2.285960928E-1
1.280776496E1,7.965839654E-2,2.070572078E-1,6.912415382E-3,2.219592957E-1
1.281779996E1,7.690735161E-2,1.795251817E-1,9.164384566E-3,1.955198648E-1
1.282783396E1,7.949628681E-2,1.401207596E-1,7.637662813E-3,1.612818055E-1
1.283786896E1,8.598454297E-2,1.004630998E-1,-2.659183228E-3,1.322620403E-1
1.284790296E1,1.054203734E-1,8.466878533E-2,-9.461622685E-3,1.355425418E-1
1.285793696E1,1.318288147E-1,9.443752468E-2,-5.622942001E-3,1.622618253E-1
1.286797196E1,1.601304859E-1,1.045816615E-1,1.478588092E-4,1.912566817E-1
1.287800596E1,1.720111072E-1,1.041180044E-1,6.835056003E-3,2.011842386E-1
1.288804096E1,1.688352823E-1,9.612517804E-2,1.339281816E-2,1.947428304E-1
1.289807496E1,1.505287141E-1,1.094412431E-1,1.649140567E-2,1.868374853E-1
1.290810996E1,1.289758235E-1,1.309933811E-1,1.264001057E-2,1.842655660E-1
1.291814396E1,1.133577153E-1,1.430473924E-1,1.690399833E-2,1.832983176E-1
1.292817796E1,1.051210165E-1,1.543061286E-1,1.711591892E-2,1.874933709E-1
1.293821296E1,1.097599790E-1,1.775057316E-1,8.838015608E-3,2.088866876E-1
1.294824696E1,1.171192899E-1,2.008416355E-1,3.480583546E-4,2.324960468E-1
1.295828196E1,1.312652081E-1,2.279707193E-1,-7.613727823E-3,2.631713749E-1
1.296831596E1,1.480600983E-1,2.611139715E-1,-1.746669225E-2,3.006782070E-1
1.297835096E1,1.551022977E-1,2.861900330E-1,-1.739159040E-2,3.259814797E-1
1.298838496E1,1.659409702E-1,3.439950347E-1,-5.491118412E-3,3.819674618E-1
1.299841896E1,1.934450269E-1,4.190288186E-1,4.733821843E-3,4.615501471E-1
1.300845396E1,2.239687145E-1,4.930484295E-1,1.413308783E-4,5.415337098E-1
1.301848796E1,2.559343576E-1,5.392191410E-1,-1.174994931E-2,5.969905684E-1
1.302852296E1,2.921171486E-1,6.168200374E-1,-2.675952390E-2,6.830193695E-1
1.303855696E1,2.789331675E-1,4.515431821E-1,-2.511395700E-2,5.313432676E-1
1.304859196E1,2.073909342E-1,1.123471707E-1,-3.073767060E-3,2.358862743E-1
1.305862596E1,1.069575474E-1,-1.185206622E-1,9.893164039E-3,1.599529274E-1
1.306866096E1,2.384523395E-3,-1.869462579E-1,-3.869523527E-3,1.870015041E-1
1.307869496E1,-1.033906415E-1,-1.791855395E-1,-3.753587604E-2,2.102522873E-1
1.308872896E1,-2.064274102E-1,-1.632909775E-1,-5.940162018E-2,2.698235933E-1
1.309876396E1,-2.934733331E-1,-1.768113077E-1,-6.723265350E-2,3.491547873E-1
1.310879796E1,-3.622578681E-1,-2.220696360E-1,-6.572463363E-2,4.299597814E-1
1.311883296E1,-4.003331065E-1,-2.710211873E-1,-5.240749940E-2,4.862773140E-1
1.312886696E1,-4.210110009E-1,-3.134418428E-1,-3.030092828E-2,5.257510798E-1
1.313890196E1,-4.111410677E-1,-3.418372571E-1,-4.242566065E-4,5.346867007E-1
1.314893596E1,-3.887099624E-1,-3.577146530E-1,2.133810520E-2,5.286875472E-1
1.315896996E1,-3.473987579E-1,-3.848562837E-1,3.848806396E-2,5.198861290E-1
1.316900496E1,-3.007034957E-1,-4.025112689E-1,5.134787783E-2,5.050490258E-1
1.317903896E1,-2.351740003E-1,-4.081065655E-1,5.390611291E-2,4.740924469E-1
1.318907396E1,-1.623850465E-1,-3.839852512E-1,4.628146067E-2,4.194705592E-1
1.319910796E1,-9.625875950E-2,-3.374835253E-1,2.560201846E-2,3.518754637E-1
1.320914296E1,-3.737001866E-2,-2.746074498E-1,5.932572298E-3,2.772020295E-1
1.321917696E1,5.210464355E-3,-2.069911510E-1,-1.462596562E-2,2.075726485E-1
1.322921196E1,3.456186503E-2,-1.333008260E-1,-2.951980755E-2,1.408369687E-1
1.323924596E1,5.477765575E-2,-5.862978101E-2,-3.703125194E-2,8.837056303E-2
1.324927996E1,5.519879982E-2,9.314629249E-3,-3.266914561E-2,6.481468117E-2
1.325931496E1,5.357746780E-2,3.586368263E-2,-1.867157221E-2,6.712210065E-2
1.326934896E1,4.725133628E-2,3.519955277E-2,-6.320695393E-3,5.925916373E-2
1.327938396E1,4.334713891E-2,2.735308371E-2,-3.823788720E-4,5.125731025E-2
1.328941796E1,2.950218506E-2,5.149798840E-2,-2.393585630E-3,5.939824059E-2
1.329945296E1,9.934077971E-3,8.478670567E-2,-3.076153807E-3,8.542209367E-2
1.330948696E1,-6.156948395E-3,9.902709723E-2,6.080122199E-3,9.940443594E-2
1.331952096E1,-2.160967514E-2,7.973435521E-2,2.275896631E-2,8.568848235E-2
1.332955596E1,-3.022535704E-2,3.026929870E-2,2.982319146E-2,5.214619259E-2
1.333958996E1,-2.709534392E-2,-2.351760864E-3,3.480330110E-2,4.416965257E-2
1.334962496E1,-1.686518826E-2,1.503050141E-2,3.736886755E-2,4.366672428E-2
1.335965896E1,5.207091570E-3,5.308866873E-2,4.457298294E-2,6.951454063E-2
1.336969396E1,2.919343859E-2,8.527493477E-2,4.212533310E-2,9.949178381E-2
1.337972796E1,6.025415659E-2,1.143001914E-1,2.968943678E-2,1.325766186E-1
1.338976296E1,9.595616162E-2,1.739834547E-1,1.914431714E-2,1.996104515E-1
1.339979696E1,1.388181299E-1,2.299841493E-1,2.249910124E-2,2.695726093E-1
1.340983138E1,1.725930125E-1,2.653552890E-1,3.442380577E-2,3.184129013E-1
1.341986638E1,2.085321099E-1,3.066411912E-1,3.715647385E-2,3.726862817E-1
1.342990038E1,2.320725173E-1,3.417631686E-1,2.679644525E-2,4.139779779E-1
1.343993538E1,2.478477508E-1,3.496346772E-1,7.662698161E-3,4.286392796E-1
1.344996938E1,2.505886257E-1,3.410747051E-1,-5.936799571E-3,4.232751580E-1
1.346000437E1,2.534072995E-1,3.108547628E-1,-1.418407634E-2,4.013067792E-1
1.347003838E1,2.492734045E-1,2.867288291E-1,-9.462158196E-3,3.800528701E-1
1.348007238E1,2.505243123E-1,2.743195593E-1,1.402505860E-2,3.717665315E-1
1.349010737E1,2.442921400E-1,2.491676956E-1,3.245938942E-2,3.504522823E-1
1.350014137E1,2.354350090E-1,2.144674957E-1,2.988837287E-2,3.198738267E-1
1.351017638E1,2.353875041E-1,1.952960938E-1,1.633835211E-2,3.062919899E-1
1.352021038E1,2.507621944E-1,2.105248570E-1,-6.410636008E-3,3.274805182E-1
1.353024538E1,2.619657516E-1,2.503732145E-1,-2.077579871E-2,3.629661629E-1
1.354027938E1,2.610440552E-1,2.688992321E-1,-2.118406072E-2,3.753659018E-1
1.355031437E1,2.440797240E-1,2.653838098E-1,-1.603243686E-2,3.609162191E-1
1.356034838E1,2.136821300E-1,2.564800382E-1,-7.068236358E-3,3.339042117E-1
1.357038238E1,1.671593040E-1,2.431160808E-1,2.380320802E-3,2.950480089E-1
1.358041737E1,1.153317913E-1,2.091679573E-1,1.875822805E-2,2.395924197E-1
1.359045137E1,6.695772707E-2,1.693507433E-1,2.463489026E-2,1.837658545E-1
1.360048638E1,3.760489821E-2,1.502803862E-1,2.040658891E-2,1.562522055E-1
1.361052038E1,2.803903073E-2,1.517917812E-1,2.006404288E-2,1.556582728E-1
1.362055538E1,3.909327835E-2,1.311773211E-1,1.730873622E-2,1.379687150E-1
1.363058938E1,5.026464537E-2,8.680885285E-2,1.222629659E-2,1.010534207E-1
1.364062338E1,6.650672853E-2,1.638822071E-2,1.258049719E-2,6.964185256E-2
1.365065838E1,7.258899510E-2,-6.422425807E-2,8.922244422E-3,9.733202956E-2
1.366069238E1,7.544017583E-2,-1.326349974E-1,1.469387906E-3,1.525956151E-1
1.367072737E1,8.762991428E-2,-1.512300819E-1,-9.107516962E-4,1.747866386E-1
1.368076137E1,1.036578789E-1,-1.315490454E-1,5.778842606E-3,1.675813302E-1
1.369079638E1,1.182188094E-1,-1.006883085E-1,2.380372770E-2,1.571000949E-1
1.370083038E1,1.366934180E-1,-8.460494876E-2,3.907535970E-2,1.654387247E-1
1.371086538E1,1.352531016E-1,-5.582404509E-2,3.835836798E-2,1.512649658E-1
1.372089938E1,1.283597797E-1,-2.812077850E-2,3.118833899E-2,1.350545213E-1
1.373093338E1,1.188444346E-1,-1.493852772E-2,3.410249576E-2,1.245397104E-1
1.374096838E1,1.031211317E-1,-3.667312115E-2,3.304176033E-2,1.143269152E-1
1.375100238E1,8.029230684E-2,-1.238343418E-1,2.204323560E-2,1.492236676E-1
1.376103737E1,3.511604667E-2,-3.202195764E-1,-4.109272733E-3,3.221654853E-1
1.377107137E1,1.601443160E-3,-4.203493595E-1,-3.317134082E-2,4.216592066E-1
1.378110638E1,-1.006613113E-2,-3.880542517E-1,-4.442851990E-2,3.907189816E-1
1.379114038E1,-2.671275288E-2,-3.209809363E-1,-3.274177015E-2,3.237504535E-1
1.380117538E1,-6.387396902E-2,-3.320112228E-1,-2.124597318E-2,3.387664791E-1
1.381120938E1,-1.000696570E-1,-3.393100798E-1,-2.986196615E-2,3.550169060E-1
1.382124338E1,-1.307205260E-1,-3.548371196E-1,-3.991060331E-2,3.802500409E-1
1.383127838E1,-1.421169192E-1,-3.496776819E-1,-3.924342245E-2,3.794887958E-1
1.384131238E1,-1.357247978E-1,-3.262458742E-1,-3.586919978E-2,3.551678345E-1
1.385134738E1,-1.137998626E-1,-3.093726337E-1,-3.469534218E-2,3.314598045E-1
1.386138137E1,-8.614373207E-2,-3.106001019E-1,-3.873562440E-2,3.246438271E-1
1.387141638E1,-6.265624613E-2,-3.252350986E-1,-4.185418040E-2,3.338494376E-1
1.388145038E1,-5.494320020E-2,-3.036784232E-1,-4.359908402E-2,3.116732585E-1
1.389148437E1,-5.031468719E-2,-2.388650030E-1,-2.927373908E-2,2.458556674E-1
1.390151938E1,-6.251861900E-2,-2.195525616E-1,-1.102149859E-2,2.285462283E-1
1.391155338E1,-7.285740972E-2,-2.225932926E-1,5.523255095E-3,2.342786427E-1
1.392158838E1,-1.119555458E-1,-1.752561703E-2,1.289701462E-2,1.140505348E-1
1.393162238E1,-1.645909995E-1,7.584245503E-2,-2.135809511E-2,1.824786106E-1
1.394165738E1,-2.049978077E-1,7.996715605E-2,-3.489414603E-2,2.227923891E-1
1.395169137E1,-2.322552055E-1,1.856852770E-1,-2.924098819E-2,2.987917970E-1
1.396172638E1,-2.503913343E-1,3.396250308E-1,-3.220721707E-2,4.231764250E-1
1.397176038E1,-2.840548754E-1,4.785213172E-1,-4.817380011E-2,5.585611321E-1
1.398179437E1,-3.099567890E-1,5.294508338E-1,-7.003435493E-2,6.174918682E-1
1.399182938E1,-3.202177882E-1,5.034082532E-1,-8.740946651E-2,6.029923019E-1
1.400186338E1,-2.870017886E-1,4.246282279E-1,-1.123813987E-1,5.246987111E-1
1.401189837E1,-1.944168657E-1,3.197156191E-1,-1.281756759E-1,3.955312866E-1
1.402193238E1,-6.152033433E-2,2.220774889E-1,-1.079295278E-1,2.544640359E-1
1.403196738E1,1.070983633E-1,1.416414827E-1,-2.830834687E-2,1.798158268E-1
1.404200137E1,2.601675391E-1,3.790656105E-2,6.573292613E-2,2.710071463E-1
1.405203538E1,4.097104967E-1,-1.542559452E-2,1.408336163E-1,4.335144144E-1
1.406207038E1,5.591340661E-1,-1.410093810E-2,1.303913593E-1,5.743097134E-1
1.407210437E1,6.499853730E-1,-4.912805930E-2,8.150157332E-2,6.569148025E-1
1.408213938E1,7.219176292E-1,-9.553630650E-2,6.718974560E-2,7.313048005E-1
1.409217338E1,7.635821104E-1,-1.460014731E-1,9.776211530E-2,7.835378106E-1
1.410220837E1,7.623913884E-1,-1.570147127E-1,1.356631517E-1,7.901257747E-1
1.411224238E1,6.991494894E-1,-1.616598815E-1,1.568160206E-1,7.345305917E-1
1.412227738E1,5.774148107E-1,-1.466851830E-1,1.749747843E-1,6.209191426E-1
1.413231137E1,4.334417880E-1,-8.466141671E-2,1.918961108E-1,4.815220206E-1
1.414234538E1,2.759472430E-1,-2.623459138E-2,1.924319416E-1,3.374391602E-1
1.415238038E1,1.206682995E-1,2.135761455E-2,1.798715442E-1,2.176482452E-1
1.416241437E1,-8.682233281E-3,7.192411274E-2,1.723065674E-1,1.869171270E-1
1.417244938E1,-9.446477890E-2,8.465546370E-2,1.572799683E-1,2.020572454E-1
1.418248338E1,-1.363288760E-1,9.756540507E-2,1.306867003E-1,2.125643064E-1
1.419251837E1,-1.500585824E-1,9.744365513E-2,1.035793722E-1,2.067402487E-1
1.420255238E1,-1.347741783E-1,1.050845310E-1,7.837335765E-2,1.880138851E-1
1.421258738E1,-1.143426076E-1,7.402492315E-2,5.098414421E-2,1.454417550E-1
1.422262137E1,-7.592944056E-2,1.658932865E-2,2.773075365E-2,8.251957626E-2
1.423265538E1,-2.290537208E-2,-2.067308873E-2,1.440615952E-2,3.405246100E-2
1.424269038E1,3.732308000E-2,-4.700136185E-2,-2.992830705E-4,6.001857951E-2
1.425272437E1,8.509068191E-2,-5.713310838E-2,-1.629468799E-2,1.037792517E-1
1.426275938E1,1.293358952E-1,-3.234706819E-2,-2.590097673E-2,1.358122498E-1
1.427279338E1,1.605910957E-1,8.525141515E-3,-3.643983603E-2,1.648940257E-1
1.428282837E1,1.895678937E-1,6.833707541E-2,-3.505605832E-2,2.045357412E-1
1.429286238E1,2.341316342E-1,1.603015065E-1,-2.916195244E-2,2.852448328E-1
1.430289738E1,2.819089890E-1,2.579423189E-1,-9.456424043E-3,3.822255118E-1
1.431293137E1,3.222056925E-1,3.395525515E-1,1.001993660E-2,4.682017115E-1
1.432296538E1,3.418342471E-1,4.159567952E-1,2.540182322E-2,5.389953252E-1
1.433300038E1,3.455016911E-1,4.463834167E-1,3.743132204E-2,5.657125393E-1
1.434303437E1,3.300167322E-1,4.438792467E-1,5.837495252E-2,5.561901332E-1
1.435306938E1,2.975496650E-1,3.725298941E-1,8.603034168E-2,4.844745038E-1
1.436310338E1,2.675193548E-1,2.609807253E-1,9.647819400E-2,3.859865102E-1
1.437313837E1,2.406566143E-1,1.724334955E-1,1.090193465E-1,3.154903078E-1
1.438317238E1,2.161059976E-1,1.316075027E-1,1.180123091E-1,2.791939148E-1
1.439320738E1,1.868769526E-1,9.151384234E-2,1.167618930E-1,2.386024276E-1
1.440324137E1,1.434458494E-1,2.747147158E-2,1.074219197E-1,1.813032330E-1
1.441327558E1,8.754025400E-2,-2.697424591E-2,1.084174141E-1,1.419339343E-1
1.442331058E1,2.854563668E-2,-6.220121309E-2,1.127562374E-1,1.319007709E-1
1.443334458E1,-1.723749191E-2,-8.049645275E-2,1.096739620E-1,1.371320093E-1
1.444337958E1,-4.889182374E-2,-9.418696165E-2,9.499541670E-2,1.424279585E-1
1.445341358E1,-5.445497856E-2,-9.944961965E-2,7.358352840E-2,1.351669604E-1
1.446344858E1,-4.197167605E-2,-1.344901621E-1,3.944047168E-2,1.463037119E-1
1.447348258E1,-1.387658250E-2,-1.906085759E-1,1.288365573E-3,1.911173688E-1
1.448351658E1,3.246721253E-2,-2.419516593E-1,-4.700752720E-2,2.486049737E-1
1.449355158E1,8.696799725E-2,-2.561828792E-1,-9.355958551E-2,2.862629843E-1
1.450358558E1,1.315285414E-1,-2.474557161E-1,-1.480169743E-1,3.169276153E-1
1.451362058E1,1.553070396E-1,-2.209603339E-1,-1.967925727E-1,3.341722047E-1
1.452365458E1,1.693464220E-1,-1.842454672E-1,-1.983254850E-1,3.193080030E-1
1.453368958E1,1.781326830E-1,-1.564337015E-1,-1.721075177E-1,2.929569139E-1
1.454372358E1,1.713794470E-1,-1.694901139E-1,-1.431751996E-1,2.803514782E-1
1.455375858E1,1.670341492E-1,-1.996033639E-1,-1.025705934E-1,2.797546005E-1
1.456379258E1,1.574779302E-1,-2.420695871E-1,-5.151433125E-2,2.933440128E-1
1.457382658E1,1.413905621E-1,-2.881661952E-1,3.830944654E-3,3.210073569E-1
1.458386158E1,1.236365885E-1,-2.984752655E-1,4.688147828E-2,3.264526966E-1
1.459389558E1,1.085161790E-1,-2.656659484E-1,8.283223212E-2,2.986893636E-1
1.460393058E1,1.085462719E-1,-1.985452324E-1,1.083032340E-1,2.508626974E-1
1.461396458E1,9.479697794E-2,-1.571454406E-1,1.243483201E-1,2.216836963E-1
1.462399958E1,7.275958359E-2,-1.589835584E-1,1.435499638E-1,2.262218402E-1
1.463403358E1,4.590971768E-2,-1.571904719E-1,1.556978524E-1,2.259609875E-1
1.464406858E1,1.675343327E-2,-1.428333670E-1,1.552198082E-1,2.116016000E-1
1.465410258E1,2.909587696E-3,-1.302954406E-1,1.421986073E-1,1.928880801E-1
1.466413658E1,1.300829463E-2,-1.037040353E-1,1.230845749E-1,1.614730790E-1
1.467417158E1,4.024769366E-2,-7.421208918E-2,1.089256704E-1,1.378118743E-1
1.468420558E1,6.097214669E-2,-6.366197765E-2,1.049802005E-1,1.370813356E-1
1.469424058E1,6.969553232E-2,-9.821403027E-2,1.025649160E-1,1.581866776E-1
1.470427458E1,7.875720412E-2,-1.288742125E-1,1.102705076E-1,1.870049323E-1
1.471430958E1,9.855674207E-2,-1.304364204E-1,1.364565790E-1,2.129494990E-1
1.472434358E1,1.111210063E-1,-7.889839262E-2,1.255306900E-1,1.852856943E-1
1.473437858E1,1.248042062E-1,2.128362656E-2,4.137573391E-2,1.331954729E-1
1.474441258E1,1.103858501E-1,1.102910042E-1,-7.291834801E-2,1.722388660E-1
1.475444658E1,5.391959101E-2,1.250690371E-1,-1.519301385E-1,2.040400777E-1
1.476448158E1,-2.770789340E-2,5.901493132E-2,-1.842300147E-1,1.954256580E-1
1.477451558E1,-7.898187637E-2,-3.522158042E-2,-1.957853585E-1,2.140341168E-1
1.478455058E1,-7.555252314E-2,-8.929786831E-2,-2.016720027E-1,2.331392067E-1
1.479458458E1,-3.341759369E-2,-1.310443580E-1,-2.108508497E-1,2.504943915E-1
1.480461958E1,2.551629767E-2,-1.661685258E-1,-2.142253369E-1,2.723151766E-1
1.481465358E1,8.988671005E-2,-1.828739345E-1,-2.041674405E-1,2.884559591E-1
1.482468858E1,1.420731992E-1,-2.228327990E-1,-1.891653240E-1,3.249965692E-1
1.483472258E1,1.819722950E-1,-2.786213160E-1,-1.630893797E-1,3.705966805E-1
1.484475658E1,2.143004090E-1,-2.969102859E-1,-1.361096948E-1,3.906484765E-1
1.485479158E1,2.415987849E-1,-2.786005139E-1,-1.194378510E-1,3.876256177E-1
1.486482558E1,2.578893602E-1,-2.365715802E-1,-1.086688265E-1,3.664450143E-1
1.487486058E1,2.684888244E-1,-1.703785658E-1,-1.079204082E-1,3.358004154E-1
1.488489458E1,2.750321925E-1,-9.668915719E-2,-1.081720814E-1,3.109544970E-1
1.489492958E1,2.947511673E-1,-1.700533181E-2,-1.184927523E-1,3.181319919E-1
1.490496358E1,2.960960567E-1,1.359971333E-2,-1.147877648E-1,3.178585502E-1
1.491499858E1,2.857531905E-1,3.191676363E-2,-8.419011533E-2,2.996023051E-1
1.492503258E1,2.591410279E-1,4.089561105E-2,-4.762225226E-2,2.666353357E-1
1.493506658E1,2.284868658E-1,5.344881862E-2,-3.422560915E-2,2.371379690E-1
1.494510158E1,2.014137059E-1,7.767426968E-2,-2.226935141E-2,2.170177346E-1
1.495513558E1,1.679739207E-1,7.227209955E-2,-2.483110502E-2,1.845401804E-1
1.496517058E1,1.513954848E-1,6.995941699E-2,-3.994907066E-2,1.714958923E-1
1.497520458E1,1.540659368E-1,6.296268851E-2,-5.398274958E-2,1.749707126E-1
1.498523958E1,1.721679866E-1,3.896228224E-2,-6.434298307E-2,1.878826616E-1
1.499527358E1,2.012528181E-1,1.718253642E-2,-5.128423870E-2,2.083938807E-1
1.500530858E1,2.138197422E-1,-1.058890764E-2,-3.619423509E-2,2.171198512E-1
1.501534258E1,2.125844210E-1,-4.553376138E-2,-1.501987129E-2,2.179244273E-1
1.502537658E1,1.854540110E-1,-6.998717040E-2,2.501356415E-2,1.997925739E-1
1.503541158E1,1.783225387E-1,-9.294465184E-3,6.089163944E-2,1.886613544E-1
1.504544558E1,1.629691571E-1,7.161023468E-2,6.177234650E-2,1.884218529E-1
1.505548058E1,1.348568350E-1,1.667138934E-1,5.647266284E-2,2.217409521E-1
1.506551458E1,7.954511791E-2,1.972212046E-1,6.366772950E-2,2.219847047E-1
1.507554958E1,2.407679334E-2,1.783667207E-1,6.068205461E-2,1.899386500E-1
1.508558358E1,-5.524774082E-3,1.516376436E-1,3.651280329E-2,1.560694809E-1
1.509561858E1,-1.235077530E-2,1.118829399E-1,1.013074187E-3,1.125671365E-1
1.510565258E1,1.588911982E-4,5.207446590E-2,-2.176813781E-2,5.644135956E-2
1.511568658E1,2.910052054E-2,1.096074749E-2,-3.259016201E-2,4.504549856E-2
1.512572158E1,5.205909908E-2,-4.386255518E-2,-3.991518915E-2,7.891321732E-2
1.513575558E1,5.529471114E-2,-1.021150202E-1,-5.110032856E-2,1.268709029E-1
1.514579058E1,4.535792395E-2,-1.269769669E-1,-5.051549897E-2,1.439871766E-1
1.515582458E1,3.205921128E-2,-8.587720245E-2,-4.950770736E-2,1.041810924E-1
1.516585958E1,2.652862482E-2,-8.042061701E-3,-4.716758803E-2,5.471036512E-2
1.517589358E1,5.932150874E-3,4.147795215E-2,-7.184189558E-2,8.316771543E-2
1.518592858E1,7.309271488E-3,8.555406332E-2,-1.075024232E-1,1.375852252E-1
1.519596258E1,4.964352772E-2,1.058846712E-1,-1.435223669E-1,1.851343113E-1
1.520599658E1,1.195895821E-1,4.228571802E-2,-1.842010766E-1,2.236510378E-1
1.521603158E1,1.375783682E-1,3.234888986E-2,-1.546488404E-1,2.095006490E-1
1.522606558E1,1.348323822E-1,-5.754424632E-2,-1.009355485E-1,1.779862257E-1
1.523610058E1,1.187846586E-1,-4.507526383E-2,-4.513812438E-2,1.348296140E-1
1.524613458E1,9.092825651E-2,1.647917926E-2,-1.596665569E-2,9.377870374E-2
1.525616958E1,6.784298271E-2,7.872831821E-2,6.505698897E-3,1.041304111E-1
1.526620358E1,6.647678465E-2,1.860153526E-1,3.700182214E-2,2.009726577E-1
1.527623858E1,6.496203691E-2,2.787642479E-1,5.259895697E-2,2.910261542E-1
1.528627258E1,6.570745260E-2,3.647018075E-1,4.571095854E-2,3.733823368E-1
1.529630658E1,6.068813428E-2,3.863319457E-1,2.947759256E-2,3.921789774E-1
1.530634158E1,5.402650312E-2,3.635536432E-1,2.490983577E-3,3.675545123E-1
1.531637558E1,5.250165984E-2,3.645274043E-1,9.715420194E-3,3.684169407E-1
1.532641058E1,5.411127582E-2,3.491878510E-1,4.091009125E-2,3.557159274E-1
1.533644458E1,8.831764013E-2,3.049956560E-1,5.169128999E-2,3.217053702E-1
1.534647958E1,1.233403385E-1,2.714536786E-1,7.981427014E-2,3.086588026E-1
1.535651358E1,1.530146748E-1,1.860932112E-1,1.011438668E-1,2.612934284E-1
1.536654858E1,1.836144030E-1,5.082061142E-2,1.106867716E-1,2.203373435E-1
1.537658258E1,2.294389606E-1,-1.019741148E-1,8.637884259E-2,2.655226189E-1
1.538661658E1,3.044013679E-1,-1.986692250E-1,4.677950591E-2,3.664941690E-1
1.539665158E1,3.759671450E-1,-2.551555634E-1,2.533192746E-3,4.543809775E-1
1.540668558E1,4.338754416E-1,-2.994953394E-1,-5.065785721E-2,5.296334351E-1
1.541672021E1,4.789242744E-1,-2.951787710E-1,-8.682104200E-2,5.692423569E-1
1.542675421E1,4.958481491E-1,-2.643995583E-1,-1.103553995E-1,5.726699115E-1
1.543678921E1,4.751524031E-1,-2.386371195E-1,-1.234512851E-1,5.458550181E-1
1.544682321E1,4.549238086E-1,-2.410861701E-1,-1.355976909E-1,5.324142624E-1
1.545685821E1,4.335041344E-1,-2.432463765E-1,-1.496939510E-1,5.191366999E-1
1.546689221E1,4.292702377E-1,-2.098900229E-1,-1.603197008E-1,5.040130605E-1
1.547692621E1,4.226517975E-1,-1.828207523E-1,-1.653849781E-1,4.892955757E-1
1.548696121E1,4.019513130E-1,-1.423862427E-1,-1.563976109E-1,4.542014012E-1
1.549699521E1,3.748284876E-1,-8.073047549E-2,-1.470497698E-1,4.106548911E-1
1.550703021E1,3.380694091E-1,-4.409629852E-2,-1.475365907E-1,3.714868161E-1
1.551706421E1,2.926297784E-1,-2.870531008E-2,-1.513289064E-1,3.306911247E-1
1.552709921E1,2.523500025E-1,-9.559312835E-3,-1.562818587E-1,2.969779850E-1
1.553713321E1,2.096799016E-1,-2.003061958E-2,-1.534231007E-1,2.605869043E-1
1.554716821E1,1.780058593E-1,-4.672348127E-2,-1.428916305E-1,2.329961109E-1
1.555720221E1,1.472892612E-1,-6.925846636E-2,-1.314506382E-1,2.092131256E-1
1.556723621E1,1.315260082E-1,-8.182485402E-2,-1.219735220E-1,1.971596755E-1
1.557727121E1,1.145232916E-1,-8.620464057E-2,-1.160086095E-1,1.844039638E-1
1.558730521E1,1.080885604E-1,-8.379128575E-2,-1.162333786E-1,1.794834666E-1
1.559734021E1,9.259725362E-2,-6.921851635E-2,-1.136985496E-1,1.621505922E-1
1.560737421E1,6.592995673E-2,-6.017415598E-2,-9.679333121E-2,1.316686645E-1
1.561740921E1,4.311014712E-2,-7.348725200E-2,-8.998095244E-2,1.239170400E-1
1.562744321E1,3.332729265E-2,-8.073823899E-2,-7.783401012E-2,1.169936101E-1
1.563747821E1,2.713371813E-2,-7.002644986E-2,-6.450288743E-2,9.899780213E-2
1.564751221E1,1.285358146E-2,-6.020630896E-2,-5.398845673E-2,8.188264563E-2
1.565754621E1,2.944551641E-3,-8.031164110E-2,-3.799771145E-2,8.889576005E-2
1.566758121E1,5.001577083E-3,-1.074756235E-1,-2.861193568E-2,1.113313446E-1
1.567761521E1,1.877234131E-2,-1.239758432E-1,-2.462642640E-2,1.277844723E-1
1.568765021E1,3.833245859E-2,-1.296110749E-1,-2.157976851E-2,1.368725485E-1
1.569768421E1,6.636708230E-2,-1.097924411E-1,-2.548070997E-2,1.307984569E-1
1.570771921E1,9.581365436E-2,-9.586171061E-2,-3.008584864E-2,1.388340096E-1
1.571775321E1,1.280148476E-1,-7.140256464E-2,-3.559234366E-2,1.508407849E-1
1.572778821E1,1.577506363E-1,-4.891164228E-2,-3.247378394E-2,1.683215930E-1
1.573782221E1,1.789357662E-1,-4.214325920E-2,-3.522942215E-2,1.871768546E-1
1.574785721E1,2.053921372E-1,-2.459995076E-2,-2.779494226E-2,2.087190609E-1
1.575789121E1,2.169511616E-1,3.328651190E-3,-1.266407408E-2,2.173459575E-1
1.576792521E1,2.193525434E-1,4.169411492E-3,-1.027418184E-4,2.193921895E-1
1.577796021E1,2.094336748E-1,-1.472829003E-2,8.848485537E-3,2.101372941E-1
1.578799421E1,2.017635107E-1,-1.851503924E-2,2.176029049E-2,2.037764245E-1
1.579802921E1,1.821884811E-1,-2.197108697E-3,2.463970892E-2,1.838602327E-1
1.580806321E1,1.584749073E-1,2.435833588E-2,2.344501577E-2,1.620410242E-1
1.581809821E1,1.309632361E-1,4.615202546E-2,2.052338608E-2,1.403659077E-1
1.582813221E1,1.014932320E-1,2.007195354E-2,9.986057878E-3,1.039397941E-1
1.583816721E1,8.311028033E-2,1.957190968E-2,1.238962170E-3,8.539270094E-2
1.584820121E1,6.644235551E-2,3.789924830E-2,-1.595972804E-3,7.650808295E-2
1.585823521E1,5.368229747E-2,5.797832459E-2,-1.987117529E-2,8.147477396E-2
1.586827021E1,4.121364281E-2,5.423924327E-2,-3.678943589E-2,7.742042661E-2
1.587830421E1,3.608897328E-2,4.142650217E-2,-3.645675257E-2,6.593681735E-2
1.588833921E1,4.309920967E-2,4.701887444E-2,-2.498305775E-2,6.850160291E-2
1.589837321E1,4.653404281E-2,4.715173319E-2,-7.605252322E-3,6.668240357E-2
1.590840821E1,3.962926567E-2,4.408803210E-2,1.460364740E-2,6.105325371E-2
1.591844221E1,2.031667717E-2,2.333958633E-2,2.559250779E-2,4.015569843E-2
1.592847721E1,-5.920667900E-4,3.503325954E-2,3.273244575E-2,4.794885631E-2
1.593851121E1,-2.383505367E-2,7.235644758E-2,3.538949415E-2,8.399989039E-2
1.594854621E1,-4.692652449E-2,8.891119063E-2,4.478619248E-2,1.100595364E-1
1.595858021E1,-8.032003045E-2,1.068901122E-1,6.301726401E-2,1.478106185E-1
1.596861421E1,-1.265333295E-1,1.376435012E-1,9.733555466E-2,2.107857374E-1
1.597864921E1,-1.738676429E-1,2.030210793E-1,1.282001734E-1,2.964503337E-1
1.598868321E1,-2.059211731E-1,3.233176768E-1,1.313853115E-1,4.052159297E-1
1.599871821E1,-2.189237922E-1,4.505654573E-1,3.083235212E-2,5.018839429E-1
1.600875221E1,-2.172670513E-1,6.361489296E-1,-2.911247313E-2,6.728580596E-1
1.601878721E1,-2.535998225E-1,8.736189008E-1,3.313883767E-2,9.102862387E-1
1.602882121E1,-3.245304525E-1,1.148741603E0,1.452443302E-1,1.202507048E0
1.603885621E1,-4.617031515E-1,1.388880730E0,1.865207553E-1,1.475448906E0
1.604889021E1,-6.182493567E-1,1.576922536E0,1.270001680E-1,1.698542314E0
1.605892421E1,-7.840303779E-1,1.661156654E0,-5.780036375E-2,1.837793771E0
1.606895921E1,-9.379584193E-1,1.562485218E0,-2.570165396E-1,1.840430263E0
1.607899321E1,-1.079177499E0,1.234363556E0,-3.794062436E-1,1.682922030E0
