"Time (s)","Gyroscope x (rad/s)","Gyroscope y (rad/s)","Gyroscope z (rad/s)","Absolute (rad/s)"
7.058666662E-3,2.530389652E-2,8.967717737E-2,-6.176201999E-2,1.117892232E-1
1.707966666E-2,2.784099989E-2,1.026266441E-1,-6.195485592E-2,1.230680849E-1
2.709966667E-2,3.150470927E-2,1.267040223E-1,-5.545993894E-2,1.418529548E-1
3.711966667E-2,3.592580557E-2,1.448453367E-1,-5.446838588E-2,1.588635897E-1
4.714066666E-2,4.145372659E-2,1.473226100E-1,-5.435759947E-2,1.624103183E-1
5.716066666E-2,4.567006975E-2,1.471546143E-1,-4.840916023E-2,1.615044352E-1
6.718066667E-2,4.695983976E-2,1.516193897E-1,-5.026857927E-2,1.664950328E-1
7.720066667E-2,4.894905910E-2,1.706136018E-1,-4.442084208E-2,1.829705515E-1
8.722166667E-2,5.489270389E-2,1.900152713E-1,-3.966123983E-2,2.017226468E-1
9.724166666E-2,5.656177551E-2,1.914707869E-1,-3.976748511E-2,2.035724676E-1
1.072616667E-1,6.170327216E-2,1.612710804E-1,-3.272023052E-2,1.757448965E-1
1.172816667E-1,6.535526365E-2,1.081256643E-1,-3.397383913E-2,1.308307743E-1
1.273026667E-1,5.933704972E-2,6.692709774E-2,-3.602580354E-2,9.642603591E-2
1.373226667E-1,6.106298044E-2,4.217387363E-2,-3.654986992E-2,8.272373414E-2
1.473426667E-1,6.402947754E-2,3.435776010E-2,-3.197482601E-2,7.938903684E-2
1.573636667E-1,6.516481936E-2,5.397237465E-2,-3.031306341E-2,8.987965688E-2
1.673836667E-1,7.002722472E-2,8.790344745E-2,-2.715322375E-2,1.156206116E-1
1.774036667E-1,7.611059397E-2,1.192038208E-1,-2.330210805E-2,1.433365329E-1
1.874236667E-1,7.865311205E-2,1.294657737E-1,-1.978646964E-2,1.527717349E-1
1.974446667E-1,7.900907099E-2,1.243911609E-1,-1.746270433E-2,1.483931948E-1
2.074646667E-1,8.108633757E-2,1.142557040E-1,-1.864834316E-2,1.413404427E-1
2.174846667E-1,8.552331477E-2,9.852306545E-2,-1.552974805E-2,1.313857103E-1
2.275056667E-1,8.783307672E-2,7.481054962E-2,-1.756333932E-2,1.167036357E-1
2.375256667E-1,8.754894137E-2,3.666942194E-2,-1.258381270E-2,9.574871270E-2
2.475456667E-1,8.934257925E-2,4.777802154E-3,-1.248873863E-2,9.033765800E-2
2.575665833E-1,8.860746026E-2,-8.791415952E-3,-1.121523418E-2,8.974604440E-2
2.675865833E-1,8.919708431E-2,-4.546336830E-3,-6.066544913E-3,8.951866841E-2
2.776065833E-1,9.239733964E-2,1.452941261E-2,-3.179633990E-3,9.358676336E-2
2.876265833E-1,9.218908101E-2,4.428571090E-2,-3.284562379E-3,1.023271186E-1
2.976475833E-1,9.035269916E-2,7.149954140E-2,2.057469101E-4,1.152208184E-1
3.076675833E-1,9.300680459E-2,8.889264613E-2,2.150653396E-3,1.286732045E-1
3.176875833E-1,9.056617320E-2,9.364770353E-2,2.968544606E-3,1.303109219E-1
3.277075833E-1,9.135340154E-2,8.307868242E-2,3.123806790E-3,1.235203207E-1
3.377285833E-1,9.165988863E-2,6.714332104E-2,2.584240865E-3,1.136505127E-1
3.477485833E-1,9.364527464E-2,5.082506686E-2,7.135583088E-3,1.067873655E-1
3.577685833E-1,9.843798727E-2,3.485965729E-2,1.054652035E-2,1.049593356E-1
3.677895833E-1,9.487414360E-2,1.657625847E-2,1.171804499E-2,9.702158547E-2
3.778095833E-1,9.884250164E-2,6.622293498E-3,1.721273176E-2,1.005483617E-1
3.878295833E-1,1.030391082E-1,2.610774012E-3,2.139789052E-2,1.052698612E-1
3.978495833E-1,1.045340002E-1,-6.084339693E-3,2.362297662E-2,1.073425424E-1
4.078705833E-1,1.055076569E-1,-1.820651442E-2,2.359740995E-2,1.096365842E-1
4.178905833E-1,1.080321670E-1,-3.303861618E-2,2.697047405E-2,1.161460534E-1
4.279105833E-1,1.106460616E-1,-5.473379046E-2,2.867489867E-2,1.267303775E-1
4.379315833E-1,1.143243089E-1,-6.861356646E-2,2.949033119E-2,1.365560279E-1
4.479515833E-1,1.148191243E-1,-7.347250730E-2,3.261714801E-2,1.401624735E-1
4.579715833E-1,1.168632954E-1,-7.189043611E-2,3.762254491E-2,1.422698862E-1
4.679915833E-1,1.156401038E-1,-7.372055948E-2,4.109477624E-2,1.431647133E-1
4.780125833E-1,1.202624738E-1,-7.759356499E-2,4.444214329E-2,1.498630309E-1
4.880325833E-1,1.197639257E-1,-7.807505876E-2,4.712793976E-2,1.505329047E-1
4.980525833E-1,1.265338361E-1,-7.888431847E-2,4.956497252E-2,1.571312632E-1
5.080735833E-1,1.288388073E-1,-8.045904338E-2,5.149336904E-2,1.603890987E-1
5.180935833E-1,1.316367537E-1,-8.908640593E-2,4.934160039E-2,1.664308150E-1
5.281135833E-1,1.358171105E-1,-1.031899750E-1,4.903800040E-2,1.774800945E-1
5.381335833E-1,1.388827562E-1,-1.089337394E-1,4.878182337E-2,1.831246729E-1
5.481545833E-1,1.373735517E-1,-1.016699672E-1,4.641027749E-2,1.770937288E-1
5.581745833E-1,1.326433718E-1,-7.784731686E-2,4.951490089E-2,1.615741138E-1
5.681945833E-1,1.329030246E-1,-4.551760852E-2,4.818864912E-2,1.485167079E-1
5.782155833E-1,1.288910359E-1,-1.683991030E-2,5.070194229E-2,1.395247959E-1
5.882355833E-1,1.228142306E-1,4.975105636E-3,5.314938724E-2,1.339139436E-1
5.982555833E-1,1.159832031E-1,2.123499848E-2,5.140954256E-2,1.286311378E-1
6.082755833E-1,1.105993539E-1,2.759729140E-2,5.514515936E-2,1.266286547E-1
6.182965833E-1,1.040443406E-1,2.330308966E-2,5.409296229E-2,1.195588029E-1
6.283165833E-1,9.445483238E-2,1.235137135E-2,5.077972263E-2,1.079483764E-1
6.383365833E-1,8.784824610E-2,7.443151437E-3,5.189577490E-2,1.023029144E-1
6.483575833E-1,7.990670204E-2,7.988300174E-3,5.244518444E-2,9.591345756E-2
6.583775833E-1,7.004527003E-2,5.262058694E-3,5.073262379E-2,8.664772490E-2
6.683975833E-1,6.353197992E-2,-7.359727286E-3,5.459899828E-2,8.409238177E-2
6.784175833E-1,6.064251065E-2,-2.518299036E-2,5.355180427E-2,8.473188799E-2
6.884385833E-1,5.823688209E-2,-5.064467341E-2,5.585170910E-2,9.526715483E-2
6.984585833E-1,5.471633375E-2,-6.000586599E-2,5.836570635E-2,1.000056839E-1
7.084785833E-1,5.056260154E-2,-6.453777105E-2,5.428041890E-2,9.832631612E-2
7.184995833E-1,4.228778183E-2,-5.264453962E-2,5.814037845E-2,8.910672057E-2
7.285195833E-1,3.890530020E-2,-3.758862615E-2,5.745940655E-2,7.891837936E-2
7.385395833E-1,3.057226911E-2,-1.289260015E-2,5.545032024E-2,6.461904357E-2
7.485595833E-1,2.226427197E-2,1.825227030E-2,5.812839419E-2,6.486719809E-2
7.585805833E-1,1.158221811E-2,4.676708579E-2,5.832091346E-2,7.564811324E-2
7.686005833E-1,-2.277269959E-5,5.644607916E-2,5.780372769E-2,8.079252011E-2
7.786205833E-1,-1.017045882E-2,4.157555848E-2,5.722129717E-2,7.145797469E-2
7.886415833E-1,-2.006357163E-2,1.649310626E-2,5.317569152E-2,5.917958794E-2
7.986615833E-1,-3.161720932E-2,-5.044781603E-3,5.018246546E-2,5.952627644E-2
8.086815833E-1,-3.816378862E-2,-2.837806754E-2,5.074332654E-2,6.954620527E-2
8.187025833E-1,-4.865685850E-2,-4.196054488E-2,5.068495870E-2,8.183606934E-2
8.287225833E-1,-5.550571159E-2,-4.324259236E-2,4.909238964E-2,8.579550416E-2
8.387425833E-1,-6.534823775E-2,-4.202572629E-2,4.367465898E-2,8.912928635E-2
8.487625833E-1,-8.065502346E-2,-3.469138220E-2,4.584619775E-2,9.904846620E-2
8.587835833E-1,-9.660551697E-2,-3.325650841E-2,4.350633919E-2,1.110469397E-1
8.688035833E-1,-1.105911061E-1,-3.944915533E-2,3.930333629E-2,1.238199534E-1
8.788235833E-1,-1.293778121E-1,-4.906060174E-2,3.654691204E-2,1.431126748E-1
8.888435833E-1,-1.455706209E-1,-6.577993184E-2,3.033296205E-2,1.625973360E-1
8.988645833E-1,-1.568724662E-1,-7.439520210E-2,2.277659066E-2,1.751067955E-1
9.088845833E-1,-1.705674976E-1,-5.985487998E-2,1.881087758E-2,1.817408237E-1
9.189045833E-1,-1.853083819E-1,-3.208257630E-2,1.677509025E-2,1.888117893E-1
9.289255833E-1,-2.000231445E-1,7.287733257E-3,1.314839814E-2,2.005872622E-1
9.389455833E-1,-2.195725441E-1,4.012399167E-2,1.102699898E-2,2.234807185E-1
9.489655833E-1,-2.453149408E-1,4.440155998E-2,1.092872862E-2,2.495402890E-1
9.589855833E-1,-2.777873576E-1,3.329623025E-3,1.164213475E-2,2.780511495E-1
9.690065833E-1,-3.170047998E-1,-8.154398948E-2,1.155451685E-2,3.275285823E-1
9.790265833E-1,-3.758904338E-1,-2.061797678E-1,1.250707731E-2,4.289057494E-1
9.890465833E-1,-4.451475441E-1,-3.743517399E-1,1.489912812E-2,5.818226063E-1
9.990675833E-1,-5.233694911E-1,-5.501567125E-1,2.259762026E-2,7.596701159E-1
1.009087583E0,-5.941517949E-1,-7.224991918E-1,2.441363037E-2,9.357443363E-1
1.019107583E0,-6.754149199E-1,-8.348019123E-1,2.811989561E-2,1.074183539E0
1.029127583E0,-7.545129657E-1,-8.511009812E-1,3.351199627E-2,1.137886528E0
1.039148583E0,-8.315768838E-1,-7.687689066E-1,4.362933338E-2,1.133326636E0
1.049168583E0,-9.248969555E-1,-4.763143957E-1,7.318882644E-2,1.042912454E0
1.059188583E0,-1.014558911E0,-2.118975371E-1,9.130100161E-2,1.040464427E0
1.069209583E0,-1.129787207E0,3.414832754E-4,9.829526395E-2,1.134055205E0
1.079229583E0,-1.240671396E0,2.264969349E-1,1.124688759E-1,1.266181513E0
1.089249583E0,-1.358538389E0,4.106915295E-1,1.270781904E-1,1.424936123E0
1.099269583E0,-1.460848927E0,5.474331975E-1,1.257164776E-1,1.565109366E0
1.109290583E0,-1.563335538E0,6.723641753E-1,1.251582801E-1,1.706386880E0
1.119310583E0,-1.647134066E0,8.054215908E-1,1.236618832E-1,1.837674299E0
1.129330583E0,-1.710791945E0,9.219857454E-1,1.170250252E-1,1.946936479E0
1.139351583E0,-1.774115324E0,9.995599389E-1,1.031522751E-1,2.038932477E0
1.149371583E0,-1.832791090E0,1.022985816E0,8.106029034E-2,2.100522299E0
1.159391583E0,-1.888176203E0,9.926601052E-1,6.513617188E-2,2.134203875E0
1.169411583E0,-1.938657999E0,9.288297296E-1,4.751722515E-2,2.150204035E0
1.179432583E0,-1.974757552E0,8.274206519E-1,3.068774194E-2,2.141315965E0
1.189452583E0,-1.993365645E0,7.034819126E-1,1.430131122E-2,2.113905846E0
1.199472583E0,-2.006139040E0,5.591929555E-1,3.459989093E-3,2.082619164E0
1.209493583E0,-2.010759592E0,3.919440210E-1,-1.073678955E-2,2.048631136E0
1.219513583E0,-2.005919933E0,2.143819481E-1,-1.891554520E-2,2.017432080E0
1.229533583E0,-1.996722102E0,3.896752372E-2,-1.732084341E-2,1.997177416E0
1.239553583E0,-1.991736054E0,-1.657755226E-1,-2.454166859E-2,1.998773706E0
1.249574583E0,-1.978121996E0,-3.983837366E-1,-1.630930416E-2,2.017905406E0
1.259594083E0,-1.949381471E0,-6.292711496E-1,-2.478351817E-4,2.048431195E0
1.269614083E0,-1.917555094E0,-8.140069246E-1,1.659079827E-2,2.083242680E0
1.279635083E0,-1.886186838E0,-9.421808720E-1,3.319933265E-2,2.108674413E0
1.289655083E0,-1.854357839E0,-9.917880893E-1,6.078009307E-2,2.103801518E0
1.299675083E0,-1.826938152E0,-9.748738408E-1,8.888693899E-2,2.072675302E0
1.309695083E0,-1.808632851E0,-9.163556695E-1,1.223538145E-1,2.031214158E0
1.319716083E0,-1.791077495E0,-8.632852435E-1,1.536966860E-1,1.994202265E0
1.329736083E0,-1.770048976E0,-8.066856265E-1,1.861670166E-1,1.954091409E0
1.339756083E0,-1.751350641E0,-7.356698513E-1,2.105824500E-1,1.911225828E0
1.349777083E0,-1.723643661E0,-6.423649192E-1,2.345282584E-1,1.854341841E0
1.359797083E0,-1.707887173E0,-5.317171812E-1,2.459275872E-1,1.805569753E0
1.369817083E0,-1.697293878E0,-3.937326968E-1,2.520520389E-1,1.760500546E0
1.379837083E0,-1.692811728E0,-2.245735526E-1,2.530231178E-1,1.726286628E0
1.389858083E0,-1.703333616E0,-4.356595501E-2,2.524239123E-1,1.722486932E0
1.399878083E0,-1.719680548E0,1.092633009E-1,2.516631782E-1,1.741428727E0
1.409898083E0,-1.724159479E0,2.134887725E-1,2.406930923E-1,1.753920332E0
1.419919083E0,-1.724585295E0,3.015382588E-1,2.225317061E-1,1.764834304E0
1.429939083E0,-1.711169958E0,4.016366303E-1,2.051774859E-1,1.769607982E0
1.439959083E0,-1.700353503E0,5.117167830E-1,1.842157245E-1,1.785214703E0
1.449979083E0,-1.687480569E0,6.053836346E-1,1.558048427E-1,1.799543043E0
1.460000083E0,-1.676715374E0,6.701423526E-1,1.195043921E-1,1.809626071E0
1.470020083E0,-1.670561075E0,7.032766342E-1,8.557678759E-2,1.814578661E0
1.480040083E0,-1.675371170E0,6.919018626E-1,4.640303925E-2,1.813215372E0
1.490060083E0,-1.687758088E0,6.159200072E-1,1.215105876E-2,1.796672610E0
1.500081083E0,-1.692027211E0,5.081685185E-1,-2.599747106E-2,1.766880640E0
1.510101083E0,-1.691056013E0,4.162308574E-1,-5.832771584E-2,1.742504143E0
1.520121083E0,-1.675508380E0,3.579885364E-1,-7.530263066E-2,1.714979478E0
1.530142083E0,-1.646305442E0,3.133938909E-1,-9.334927797E-2,1.678466987E0
1.540162083E0,-1.604813576E0,3.010323048E-1,-1.026047915E-1,1.636024084E0
1.550182083E0,-1.561504960E0,3.043354154E-1,-1.001296490E-1,1.594033793E0
1.560203083E0,-1.512198091E0,2.976151407E-1,-9.611600637E-2,1.544200804E0
1.570223083E0,-1.471794009E0,2.636851370E-1,-9.295590222E-2,1.498114901E0
1.580243083E0,-1.439279675E0,2.234821022E-1,-8.940909058E-2,1.459268385E0
1.590263083E0,-1.411582589E0,1.847038120E-1,-8.046140522E-2,1.425887423E0
1.600284083E0,-1.394201875E0,1.391235292E-1,-6.896451116E-2,1.402822272E0
1.610304083E0,-1.375888109E0,8.405017108E-2,-5.720718205E-2,1.379639512E0
1.620324083E0,-1.357695937E0,5.336872488E-2,-4.074058682E-2,1.359355095E0
1.630344083E0,-1.339454889E0,6.839534640E-2,-3.260356560E-2,1.341596182E0
1.640365083E0,-1.311651349E0,1.580134332E-1,-2.222209424E-2,1.321321811E0
1.650385083E0,-1.284199715E0,3.099702299E-1,-1.474287268E-2,1.321161535E0
1.660405083E0,-1.252278924E0,4.770083129E-1,-4.190081730E-3,1.340058577E0
1.670426083E0,-1.217752099E0,6.047185659E-1,-5.000481382E-3,1.359643234E0
1.680446083E0,-1.193658471E0,6.636528969E-1,-1.077841688E-2,1.365786179E0
1.690466083E0,-1.168722510E0,6.612198353E-1,-2.470541745E-2,1.343031770E0
1.700486083E0,-1.118163943E0,6.498936415E-1,-4.288404807E-2,1.294021403E0
1.710507083E0,-1.068574786E0,6.450988650E-1,-5.912879854E-2,1.249600270E0
1.720527083E0,-1.011379123E0,6.522116065E-1,-7.537887990E-2,1.205798360E0
1.730547083E0,-9.375187755E-1,6.553517580E-1,-8.974476904E-2,1.147380279E0
1.740568083E0,-8.629903793E-1,6.478767395E-1,-1.054445356E-1,1.084257910E0
1.750588083E0,-7.778240442E-1,6.232744455E-1,-1.157642826E-1,1.003435423E0
1.760608083E0,-6.882500052E-1,5.815180540E-1,-1.274086237E-1,9.099913594E-1
1.770628083E0,-5.967687964E-1,5.553886890E-1,-1.300526112E-1,8.255321157E-1
1.780649083E0,-5.120220184E-1,5.369525552E-1,-1.233611852E-1,7.521320203E-1
1.790669083E0,-4.313400090E-1,5.126714706E-1,-1.115876213E-1,6.792186963E-1
1.800689083E0,-3.517380655E-1,4.832516611E-1,-9.353169799E-2,6.049793494E-1
1.810710083E0,-2.717129886E-1,4.272581637E-1,-7.263334095E-2,5.115203699E-1
1.820730083E0,-1.909714490E-1,3.260360956E-1,-5.646234006E-2,3.820440103E-1
1.830750083E0,-1.204424351E-1,2.219272852E-1,-3.084938973E-2,2.543811804E-1
1.840771083E0,-4.742239416E-2,1.113408357E-1,-6.109653506E-3,1.211734007E-1
1.850791083E0,2.193324640E-2,-1.846237574E-4,1.833017729E-2,2.858490482E-2
1.860811083E0,9.047315270E-2,-8.403734863E-2,5.544366315E-2,1.353575528E-1
1.870831083E0,1.596104056E-1,-1.688960493E-1,8.853822947E-2,2.486772509E-1
1.880852083E0,2.373501956E-1,-2.431985438E-1,1.253468394E-1,3.622050210E-1
1.890872083E0,3.131496012E-1,-2.972074449E-1,1.674841642E-1,4.630830199E-1
1.900892083E0,4.119912088E-1,-2.686396539E-1,2.204170823E-1,5.389691178E-1
1.910912083E0,5.200836062E-1,-2.016395926E-1,2.706594765E-1,6.200016412E-1
1.920933083E0,6.325829625E-1,-9.303358197E-2,3.233955801E-1,7.165201693E-1
1.930953083E0,7.633012533E-1,3.799979761E-2,3.795661628E-1,8.533131078E-1
1.940973083E0,9.008334875E-1,1.789509654E-1,4.408407211E-1,1.018756576E0
1.950994083E0,1.055335760E0,2.978059649E-1,5.004550219E-1,1.205353553E0
1.961014083E0,1.224560618E0,3.830367625E-1,5.606995821E-1,1.400232085E0
1.971034083E0,1.396435142E0,4.110220671E-1,6.273342967E-1,1.585092604E0
1.981054083E0,1.574006200E0,3.628636301E-1,6.769428253E-1,1.751404328E0
1.991075083E0,1.859282255E0,4.453510344E-1,7.726467252E-1,2.062098691E0
2.001095083E0,2.056729317E0,4.340011179E-1,8.023253083E-1,2.249937411E0
2.011115083E0,2.341109991E0,3.930819035E-1,8.491482139E-1,2.521182671E0
2.021136083E0,2.675400496E0,3.057622612E-1,8.965897560E-1,2.838156367E0
2.031156083E0,3.069685698E0,1.957798451E-1,9.266757965E-1,3.212480048E0
2.041176083E0,3.488317490E0,6.331749260E-2,9.559199810E-1,3.617478545E0
2.051196083E0,3.934826612E0,1.851313282E-4,9.809063077E-1,4.055248166E0
2.061217083E0,4.405966759E0,1.016765833E-1,1.012307882E0,4.521907612E0
2.071237083E0,4.928718090E0,3.558835685E-1,1.026394606E0,5.047019022E0
2.081257083E0,5.506603241E0,7.043676376E-1,9.743433595E-1,5.636324867E0
2.091278083E0,6.250556946E0,1.563862085E0,9.531334043E-1,6.513339392E0
2.101298083E0,6.525110722E0,1.186191678E0,8.853126168E-1,6.690881785E0
2.111318083E0,7.168684006E0,1.054629445E0,8.484358191E-1,7.295348996E0
2.121338083E0,7.988798141E0,6.903858185E-1,8.283289671E-1,8.061244147E0
2.131359083E0,8.958208084E0,-2.286412120E-1,1.232181668E0,9.045443082E0
2.141379083E0,9.751485825E0,-9.725385904E-1,1.496122360E0,9.913409566E0
2.151399083E0,1.050530910E1,-1.387940526E0,1.736480594E0,1.073793570E1
2.161420083E0,1.108164406E1,-2.197442532E0,1.833237410E0,1.144518886E1
2.171440083E0,1.148118210E1,-2.926593781E0,1.558004498E0,1.195030843E1
2.181460083E0,1.162355518E1,-3.037973881E0,1.173257828E0,1.207115795E1
2.191480083E0,1.182852077E1,-2.702075720E0,7.875906229E-1,1.215875881E1
2.201501083E0,1.173643875E1,-2.741656303E0,-1.757738143E-1,1.205369530E1
2.211521083E0,1.156050587E1,-2.788990736E0,-4.175009429E-1,1.189949882E1
2.221541083E0,1.151091099E1,-2.839207172E0,-6.761709452E-1,1.187515795E1
2.231562083E0,1.148537922E1,-2.914405584E0,-9.718316197E-1,1.188916113E1
2.241582083E0,1.141908169E1,-3.025617123E0,-1.300354600E0,1.188447339E1
2.251602083E0,1.138229275E1,-3.160352707E0,-1.604387760E0,1.192134546E1
2.261622542E0,1.131871414E1,-3.306356907E0,-1.919929028E0,1.194702529E1
2.271643542E0,1.121611977E1,-3.504313469E0,-2.238961220E0,1.196221145E1
2.281663542E0,1.113242245E1,-3.732921600E0,-2.585127831E0,1.202282908E1
2.291683542E0,1.101236439E1,-4.001790047E0,-2.963404655E0,1.208587027E1
2.301704542E0,1.084528351E1,-4.315527916E0,-3.358932972E0,1.214604406E1
2.311724542E0,1.068087292E1,-4.661308765E0,-3.769692183E0,1.224824170E1
2.321744542E0,1.047146130E1,-5.045178890E0,-4.209375858E0,1.236220760E1
2.331764542E0,1.020548344E1,-5.471037865E0,-4.680770874E0,1.248974633E1
2.341785542E0,9.923731804E0,-5.925413609E0,-5.171454906E0,1.266234280E1
2.351805542E0,9.580940247E0,-6.415871143E0,-5.683098793E0,1.285517135E1
2.361825542E0,9.156362534E0,-6.936645508E0,-6.222248077E0,1.306416461E1
2.371846542E0,8.683569908E0,-7.477136612E0,-6.773579597E0,1.331139883E1
2.381866542E0,8.132899284E0,-8.030681610E0,-7.331453800E0,1.357888481E1
2.391886542E0,7.474606037E0,-8.584062576E0,-7.886196613E0,1.384730886E1
2.401906542E0,6.751120567E0,-9.130162239E0,-8.413200378E0,1.413221257E1
2.411927542E0,5.935004711E0,-9.646346092E0,-8.909719467E0,1.441039121E1
2.421947542E0,5.011908054E0,-1.012106037E1,-9.366114616E0,1.467239546E1
2.431967542E0,4.025021076E0,-1.053336716E1,-9.751888275E0,1.490811669E1
2.441988542E0,2.965281725E0,-1.086471081E1,-1.004999447E1,1.509427790E1
2.452008542E0,1.832526088E0,-1.109842873E1,-1.025971222E1,1.522481418E1
2.462028542E0,6.805936098E-1,-1.122309113E1,-1.036233711E1,1.529048765E1
2.472048542E0,-4.828868508E-1,-1.122957230E1,-1.034969902E1,1.527916043E1
2.482069542E0,-1.638254642E0,-1.112363243E1,-1.022701645E1,1.519904412E1
2.492089542E0,-2.751368761E0,-1.090794563E1,-1.000248909E1,1.505334169E1
2.502109542E0,-3.801330566E0,-1.059258747E1,-9.679575920E0,1.484409692E1
2.512129542E0,-4.786921501E0,-1.019328022E1,-9.280228615E0,1.459247142E1
2.522150542E0,-5.679113388E0,-9.731423378E0,-8.819387436E0,1.430854726E1
2.532170542E0,-6.478609085E0,-9.221741676E0,-8.302718163E0,1.399814360E1
2.542190542E0,-7.188295364E0,-8.682030678E0,-7.766103268E0,1.368800960E1
2.552211542E0,-7.801722527E0,-8.134939194E0,-7.213217735E0,1.338187656E1
2.562231542E0,-8.329809189E0,-7.592830181E0,-6.655061722E0,1.308918018E1
2.572251542E0,-8.788993835E0,-7.055736542E0,-6.107371807E0,1.281911936E1
2.582271542E0,-9.162519455E0,-6.534481049E0,-5.574164391E0,1.255876244E1
2.592292542E0,-9.477136612E0,-6.043013096E0,-5.065474987E0,1.232855070E1
2.602312542E0,-9.742458344E0,-5.571253777E0,-4.583598137E0,1.212286002E1
2.612332542E0,-9.954479218E0,-5.137466431E0,-4.125669479E0,1.193760305E1
2.622353542E0,-1.012356281E1,-4.739081860E0,-3.698846340E0,1.177399190E1
2.632373542E0,-1.026747704E1,-4.376715660E0,-3.299436808E0,1.163885767E1
2.642393542E0,-1.037750340E1,-4.045717716E0,-2.923414707E0,1.151550095E1
2.652413542E0,-1.046338940E1,-3.750551939E0,-2.573345661E0,1.140926226E1
2.662434542E0,-1.053661633E1,-3.495106936E0,-2.249168396E0,1.132673009E1
2.672454542E0,-1.058542442E1,-3.264424801E0,-1.941596866E0,1.124622060E1
2.682474542E0,-1.062124157E1,-3.061746836E0,-1.653244853E0,1.117668487E1
2.692495542E0,-1.064639282E1,-2.882641315E0,-1.387330055E0,1.111665353E1
2.702515542E0,-1.065795994E1,-2.734878540E0,-1.129426122E0,1.106107020E1
2.712535542E0,-1.066106415E1,-2.607228994E0,-8.806483150E-1,1.101051648E1
2.722555542E0,-1.065440369E1,-2.509844542E0,-6.410599947E-1,1.096478889E1
2.732576542E0,-1.063414669E1,-2.438799620E0,-4.278958142E-1,1.091860404E1
2.742596542E0,-1.061164761E1,-2.391628981E0,-2.148525566E-1,1.087994098E1
2.752616542E0,-1.058422375E1,-2.368042946E0,8.372007869E-3,1.084589737E1
2.762637542E0,-1.054635143E1,-2.361901045E0,2.181305885E-1,1.080979584E1
2.772657542E0,-1.050466251E1,-2.377117157E0,4.218869209E-1,1.077852537E1
2.782677542E0,-1.045948410E1,-2.410816908E0,6.376639605E-1,1.075264903E1
2.792697542E0,-1.040743732E1,-2.465138912E0,8.532084823E-1,1.072938145E1
2.802718542E0,-1.034854126E1,-2.545265436E0,1.067610741E0,1.071029762E1
2.812738542E0,-1.028983879E1,-2.639950037E0,1.292923212E0,1.070148443E1
2.822758542E0,-1.021909332E1,-2.755906582E0,1.525866032E0,1.069360354E1
2.832779542E0,-1.014396191E1,-2.897078753E0,1.763943195E0,1.069600505E1
2.842799542E0,-1.006274700E1,-3.060254335E0,2.019672632E0,1.070995384E1
2.852819542E0,-9.966615677E0,-3.242367506E0,2.286574602E0,1.072729223E1
2.862839542E0,-9.854465485E0,-3.450764418E0,2.561956167E0,1.075090156E1
2.872860542E0,-9.736591339E0,-3.680247068E0,2.854117393E0,1.079311890E1
2.882880542E0,-9.597522736E0,-3.939396143E0,3.162890673E0,1.084597446E1
2.892900542E0,-9.438188553E0,-4.223442554E0,3.490037680E0,1.091316788E1
2.902921542E0,-9.260742188E0,-4.533818722E0,3.832292318E0,1.100015102E1
2.912941542E0,-8.382528305E0,-5.822622776E0,4.071402550E0,1.098845010E1
2.922961542E0,-1.085867435E-1,-4.465058804E0,9.661476016E-1,4.569680775E0
2.932981542E0,2.210518837E0,-6.717731476E0,2.113496959E-1,7.075236986E0
2.943002542E0,2.725676775E0,-9.139664650E0,4.808700085E-2,9.537562380E0
2.953022542E0,2.356251478E0,-7.793915749E0,-2.953988314E-2,8.142353243E0
2.963042542E0,2.726261377E0,-6.039399624E0,-3.825991601E-2,6.626334789E0
2.973062542E0,1.968083262E0,-5.301561356E0,-1.232389957E-1,5.656420457E0
2.983083542E0,2.411822319E0,-5.256157875E0,-3.026874959E-1,5.791001833E0
2.993103542E0,2.059793949E0,-4.412077427E0,-4.064903259E-1,4.886144975E0
3.003123542E0,1.943171620E0,-4.760616779E0,-5.881781578E-1,5.175455691E0
3.013144542E0,1.843385339E0,-4.661777496E0,-6.961933374E-1,5.061118858E0
3.023164542E0,1.881755114E0,-4.729143143E0,-7.717009187E-1,5.147943228E0
3.033184542E0,1.778472185E0,-4.723001957E0,-8.520386219E-1,5.118171608E0
3.043204542E0,1.716084242E0,-4.731833458E0,-9.228138924E-1,5.117301875E0
3.053225542E0,1.738522172E0,-4.717276096E0,-9.903327227E-1,5.124052304E0
3.063245542E0,1.656851768E0,-4.762592316E0,-1.053386569E0,5.151414040E0
3.073265542E0,1.575383544E0,-4.748363018E0,-1.122278810E0,5.127211171E0
3.083286542E0,1.554974794E0,-4.798663616E0,-1.190398216E0,5.182872469E0
3.093306542E0,1.498324513E0,-4.759664059E0,-1.248647451E0,5.143782534E0
3.103326542E0,1.417608976E0,-4.792410374E0,-1.309529901E0,5.166399226E0
3.113346542E0,1.354284883E0,-4.806158066E0,-1.363365889E0,5.176099829E0
3.123367542E0,1.292769074E0,-4.819772243E0,-1.418867946E0,5.187932402E0
3.133387542E0,1.236839294E0,-4.820442677E0,-1.469941258E0,5.189139268E0
3.143407542E0,1.151970506E0,-4.842932224E0,-1.520854115E0,5.205192198E0
3.153428542E0,1.064114332E0,-4.840058327E0,-1.565122962E0,5.196933115E0
3.163448542E0,1.010059834E0,-4.853366375E0,-1.606254458E0,5.211088123E0
3.173468542E0,9.318956733E-1,-4.874995708E0,-1.644420981E0,5.228588057E0
3.183488542E0,8.282286525E-1,-4.875709057E0,-1.682929873E0,5.224055366E0
3.193509542E0,7.646283507E-1,-4.880526543E0,-1.720335841E0,5.231037302E0
3.203529542E0,1.041831255E0,-4.753973961E0,-1.851085424E0,5.206937491E0
3.213549542E0,1.096157670E0,-4.646344662E0,-2.091897488E0,5.212112379E0
3.223570542E0,1.200077653E0,-4.671222210E0,-2.451165915E0,5.410057084E0
3.233590542E0,1.219154954E0,-4.619307518E0,-2.911190271E0,5.594583947E0
3.243610542E0,1.056105137E0,-4.690564156E0,-3.395278454E0,5.885971962E0
3.253630208E0,8.460539579E-1,-4.715554237E0,-3.763000250E0,6.091997205E0
3.263651208E0,6.566178799E-1,-4.646160603E0,-4.025076866E0,6.182167837E0
3.273671208E0,4.665856361E-1,-4.584748268E0,-4.234315872E0,6.258358390E0
3.283691208E0,2.804548144E-1,-4.494530678E0,-4.407465935E0,6.301207573E0
3.293712208E0,9.133388102E-2,-4.394840717E0,-4.543166161E0,6.321655287E0
3.303732208E0,-4.094148055E-2,-4.339796066E0,-4.640250683E0,6.353537007E0
3.313752208E0,-2.389038354E-1,-4.337407589E0,-4.709718227E0,6.407154237E0
3.323772208E0,-4.386017919E-1,-4.311954498E0,-4.707654476E0,6.399010376E0
3.333793208E0,-6.380227208E-1,-4.303607464E0,-4.684407711E0,6.393104551E0
3.343813208E0,-8.442177773E-1,-4.262070179E0,-4.687887669E0,6.391731898E0
3.353833208E0,-1.045656800E0,-4.216880322E0,-4.739233017E0,6.429292914E0
3.363854208E0,-1.272764683E0,-4.176775455E0,-4.867066383E0,6.538632756E0
3.373874208E0,-1.596888185E0,-4.105504513E0,-5.199606895E0,6.814773000E0
3.383894208E0,-1.938570857E0,-4.012060165E0,-5.478292942E0,7.061612939E0
3.393914208E0,-2.237718105E0,-3.903549194E0,-5.595169544E0,7.179902566E0
3.403935208E0,-2.512141228E0,-3.770908117E0,-5.618943691E0,7.218249773E0
3.413955208E0,-2.749816418E0,-3.628010988E0,-5.583092213E0,7.203809597E0
3.423975208E0,-2.963509083E0,-3.726248980E0,-5.465504169E0,7.248382811E0
3.433996208E0,-8.301401138E0,-3.245750427E1,1.795418739E0,3.355035578E1
3.444016208E0,-9.328322411E0,-2.708903503E1,-1.256463051E0,2.867772860E1
3.454036208E0,-3.478633165E0,-1.831120491E1,-1.855238080E0,1.873080410E1
3.464056208E0,3.293697596E0,-5.451360703E0,-1.595947385E0,6.566035746E0
3.474077208E0,-1.639611721E0,-2.063803482E1,6.445918679E-1,2.071309505E1
3.484097208E0,6.052758694E0,-1.612305832E1,-2.687076807E0,1.743012562E1
3.494117208E0,6.649002075E0,-1.361641693E1,6.979997158E-1,1.516915430E1
3.504137208E0,-2.009259224E0,-2.240278816E1,-2.988997996E-1,2.249469673E1
3.514158208E0,-1.768673062E0,-5.182257175E0,-2.899664938E-1,5.483436368E0
3.524178208E0,-1.133291245E0,-9.599864960E0,6.050785184E-1,9.685446624E0
3.534198208E0,1.904292226E0,-1.015095997E1,-2.051589787E-1,1.033007296E1
3.544219208E0,-9.399625473E-3,-1.127559566E1,4.587631822E-1,1.128492843E1
3.554239208E0,1.754915595E0,-1.422930598E0,6.046546102E-1,2.338817528E0
3.564259208E0,-4.882062376E-1,-1.122630310E1,-2.651026249E-1,1.124004030E1
3.574279208E0,2.287527084E0,-7.726274133E-1,2.275420539E-2,2.414591277E0
3.584300208E0,6.716561317E-1,-7.188837528E0,-2.558523715E-1,7.224677668E0
3.594320208E0,-1.534111649E-1,-5.056847572E0,-2.403495908E-1,5.064880086E0
3.604340208E0,1.673778057E0,-1.601240933E-1,-1.892097592E-1,1.692032223E0
3.614361208E0,-4.668428004E-1,-3.738237143E0,3.945610225E-1,3.787880349E0
3.624381208E0,7.670057416E-1,-4.213019371E0,3.212169409E-1,4.294299751E0
3.634401208E0,9.287016988E-1,6.657575369E-1,4.510987699E-1,1.228499102E0
3.644421208E0,8.534097672E-1,-5.059458613E-1,7.670395821E-2,9.950743402E-1
3.654442208E0,2.470945269E-1,-1.369804859E0,4.237260818E-1,1.454979330E0
3.664462208E0,-2.563192137E-2,-1.075685143E0,1.650146842E-1,1.088570333E0
3.674482208E0,4.682116210E-1,-7.689325213E-1,2.475625575E-1,9.336844030E-1
3.684502208E0,4.921288192E-1,7.510896325E-1,2.300567627E-1,9.269587503E-1
3.694523208E0,1.182838604E-1,-4.422983527E-2,2.368070781E-1,2.683746303E-1
3.704543208E0,2.768916786E-1,1.295595765E0,2.832224667E-1,1.354788675E0
3.714563208E0,1.291331053E-1,1.348599792E0,2.342064679E-1,1.374863421E0
3.724584208E0,6.782954186E-2,1.546409488E0,2.369349897E-1,1.565925075E0
3.734604208E0,-8.652449585E-3,1.778390288E0,2.736442685E-1,1.799341009E0
3.744624208E0,-2.865279466E-2,2.595220566E0,3.173351586E-1,2.614706938E0
3.754644208E0,-1.170311272E-1,2.842179298E0,3.219254017E-1,2.862746131E0
3.764665208E0,-1.932369024E-1,3.353674650E0,3.690891862E-1,3.379452764E0
3.774685208E0,-2.726978958E-1,3.857751608E0,4.031328857E-1,3.888332256E0
3.784705208E0,-3.647753596E-1,4.223883629E0,4.401977360E-1,4.262396981E0
3.794726208E0,-4.628694355E-1,4.742909431E0,4.829766154E-1,4.789854319E0
3.804746208E0,-5.652105212E-1,5.292888165E0,5.096839070E-1,5.347326972E0
3.814766208E0,-6.886299253E-1,5.782795906E0,5.373176932E-1,5.848388664E0
3.824786208E0,-8.095589876E-1,6.378160477E0,5.476453304E-1,6.452614372E0
3.834807208E0,-1.003417730E0,6.942370415E0,5.516884923E-1,7.036171850E0
3.844827208E0,-1.081166029E0,7.663944244E0,5.261834264E-1,7.757694913E0
3.854847208E0,-1.306988716E0,8.573841095E0,4.778023362E-1,8.686038550E0
3.864867208E0,-1.183235884E0,9.470065117E0,4.168314040E-1,9.552796915E0
3.874888208E0,-1.413848639E0,1.067849731E1,2.843553722E-1,1.077544110E1
3.884908208E0,-9.016707540E-1,1.340480995E1,6.579269469E-2,1.343526214E1
3.894928208E0,2.323739290E0,1.103054523E1,5.611529946E-2,1.127279208E1
3.904949208E0,1.200183511E0,8.192272186E0,3.316029012E-1,8.286357735E0
3.914969208E0,1.710149944E-1,9.398015976E0,-3.204039037E-1,9.405031051E0
3.924989208E0,-1.418701410E0,4.146415234E0,1.113427877E-1,4.383819134E0
3.935009208E0,3.052407265E0,9.660839081E0,5.262768269E-1,1.014524367E1
3.945030208E0,-3.590935171E-1,2.339956284E0,2.756678965E-3,2.367351086E0
3.955050208E0,8.077241778E-1,3.570701599E0,2.104289085E-1,3.666961765E0
3.965070208E0,1.274939179E0,5.313260078E0,2.446518838E-1,5.469557305E0
3.975091208E0,-2.961661518E-1,2.199117899E0,-5.092269778E-1,2.276652375E0
3.985111208E0,-2.158003151E-1,5.561522245E-1,6.529925764E-2,6.001158771E-1
3.995131208E0,8.793051243E-1,1.107543707E0,-5.459179878E-1,1.515868403E0
4.005151208E0,6.754052639E-1,1.516197801E0,-9.767273068E-2,1.662699012E0
4.015172208E0,-6.032449603E-1,-1.153809190E0,-1.277709901E-1,1.308245220E0
4.025192208E0,9.266366065E-2,-1.647990942E0,-3.194616139E-1,1.681224679E0
4.035212208E0,5.223037601E-1,-1.200519085E0,-3.252721131E-1,1.349017879E0
4.045233208E0,2.063007802E-1,-2.090913296E0,-5.291934013E-1,2.166685044E0
4.055253208E0,-3.234466910E-1,-2.973679066E0,-3.768009543E-1,3.014857195E0
4.065273208E0,-4.669361413E-1,-2.995050430E0,-5.631673336E-1,3.083101342E0
4.075293208E0,-7.878813744E-1,-4.460470200E0,-4.670530558E-1,4.553535991E0
4.085314208E0,-4.668470323E-1,-4.072185993E0,-4.649193585E-1,4.125141807E0
4.095334208E0,-9.141520858E-1,-5.520436764E0,-3.781021833E-1,5.608373861E0
4.105354208E0,-9.651126862E-1,-6.336111069E0,-3.737884164E-1,6.420082846E0
4.115374208E0,-9.509326816E-1,-7.587291718E0,-3.018689454E-1,7.652606970E0
4.125395208E0,-7.633534670E-1,-9.023185730E0,-1.977355629E-1,9.057576309E0
4.135415208E0,1.644263715E-1,-1.113569069E1,1.068680063E-1,1.113741729E1
4.145435208E0,5.495480299E-1,-5.181344509E0,-3.737503588E-1,5.223793956E0
4.155456208E0,2.093079805E0,-7.123037815E0,2.579964399E-1,7.428675047E0
4.165476208E0,1.390335321E0,-1.817715406E0,3.738434613E-1,2.318810156E0
4.175496208E0,-4.771974683E-2,-7.266129494E0,4.446513057E-1,7.279878418E0
4.185516208E0,8.712324314E-3,-6.527224183E-1,-5.719265938E-1,8.678839143E-1
4.195537208E0,1.631373644E0,-5.862166286E-1,-1.561826020E-1,1.740523745E0
4.205557208E0,6.346544027E-1,-1.846934795E0,6.080167294E-1,2.045394508E0
4.215577208E0,5.850879103E-2,-1.621479511E0,-1.325732470E-1,1.627941875E0
4.225597208E0,-6.127455235E-1,1.341229230E-1,1.945479363E-1,6.567304885E-1
4.235618208E0,-4.270229489E-2,2.874799252E0,1.289590746E-1,2.878007065E0
4.245638208E0,-6.136178970E-1,3.111543417E0,1.911334544E-1,3.177225418E0
4.255658167E0,-3.638314903E-1,2.304208517E0,3.469792604E-1,2.358419990E0
4.265679167E0,-4.276555777E-1,4.838286400E0,-3.055361845E-2,4.857245938E0
4.275699167E0,-6.581252217E-1,5.445685387E0,3.106447309E-2,5.485397264E0
4.285719167E0,-3.645900786E-1,6.300876617E0,1.484695077E-1,6.313162066E0
4.295739167E0,1.120560050E0,8.587164879E0,-1.626724564E-2,8.659983840E0
4.305760167E0,-3.379967809E-1,5.591524601E0,3.637029231E-2,5.601848979E0
4.315780167E0,-9.405452013E-1,4.439671516E0,-6.340370327E-2,4.538648310E0
4.325800167E0,5.751547217E-1,2.648130417E0,1.540209353E-1,2.714243929E0
4.335821167E0,-1.527868211E-1,2.397640467E0,-1.702990569E-2,2.402563972E0
4.345841167E0,1.164830208E0,3.492139816E0,-2.088076919E-1,3.687203624E0
4.355861167E0,-6.500653625E-1,-4.475990534E-1,-1.851180792E-1,8.106778591E-1
4.365881167E0,7.273315638E-2,1.645439625E0,1.214088500E-1,1.651514995E0
4.375902167E0,-9.652138501E-2,-1.310445189E0,-1.793978512E-1,1.326184965E0
4.385922167E0,-2.965154052E-1,-1.239641383E-1,-7.015103847E-2,3.289523693E-1
4.395942167E0,2.249808013E-1,-1.652636766E0,-2.732969522E-1,1.690123033E0
4.405962167E0,-9.207800627E-1,-2.441632986E0,-1.196925491E-1,2.612227760E0
4.415983167E0,-5.658440590E-1,-2.765667915E0,-1.465231031E-1,2.826759193E0
4.426003167E0,-7.037535906E-1,-4.184442520E0,-1.001220718E-1,4.244390740E0
4.436023167E0,-2.443449944E-1,-4.845544338E0,-1.761467755E-2,4.851733163E0
4.446044167E0,-7.364862412E-2,-6.060951710E0,-1.318060234E-2,6.061413488E0
4.456064167E0,4.900163412E-1,-3.927464008E0,-7.332490385E-2,3.958593954E0
4.466084167E0,-3.453265429E-1,-2.106614351E0,5.686870590E-2,2.135487882E0
4.476104167E0,-4.377590120E-1,-1.831910491E0,1.271902770E-1,1.887778156E0
4.486125167E0,-1.039390713E-1,-4.969026148E-1,2.978738546E-1,5.885952535E-1
4.496145167E0,-1.119131073E-1,-2.964078784E-1,-9.736082703E-2,3.314533219E-1
4.506165167E0,3.712734580E-1,1.128013253E0,2.598532476E-2,1.187827057E0
4.516186167E0,5.103232265E-1,1.480132222E0,4.385859519E-2,1.566251821E0
4.526206167E0,-1.170416921E-1,2.066292048E0,-3.801598027E-2,2.069953332E0
4.536226167E0,-4.058812261E-1,2.162724257E0,7.545910776E-3,2.200493745E0
4.546246167E0,-7.320684791E-1,2.745363235E0,-2.794218622E-2,2.841429978E0
4.556267167E0,4.803068340E-1,5.470647335E0,1.689585857E-2,5.491717617E0
4.566287167E0,1.239768386E0,5.552034378E0,-6.461057812E-2,5.689137537E0
4.576307167E0,8.797670156E-2,1.427513838E0,9.461522102E-3,1.430253536E0
4.586327167E0,1.144414693E-1,1.527661204E0,8.444385976E-2,1.534267373E0
4.596348167E0,3.278975487E-1,1.299497843E0,5.771930143E-2,1.341470448E0
4.606368167E0,-2.292952836E-1,1.290993989E-1,-7.284320891E-2,2.730368380E-1
4.616388167E0,-2.777728140E-1,-2.311711758E-1,9.883320332E-2,3.746543084E-1
4.626409167E0,-1.811929345E-1,-7.311676145E-1,-3.484494612E-2,7.540896036E-1
4.636429167E0,-1.370486896E-2,-1.118982911E0,-3.920374066E-2,1.119753326E0
4.646449167E0,-3.424364924E-1,-2.030571699E0,-6.931991130E-2,2.060410014E0
4.656469167E0,-1.508279145E-1,-2.565162659E0,-7.733512670E-3,2.569604704E0
4.666490167E0,-2.605268359E-1,-3.417311668E0,-5.228505470E-3,3.427232208E0
4.676510167E0,-1.136055514E-1,-4.165571690E0,-3.113174252E-2,4.167236843E0
4.686530167E0,2.266177535E-1,-2.987972260E0,-3.216139227E-2,2.996726245E0
4.696550167E0,-3.836543113E-2,-2.292113066E0,-3.288730048E-3,2.292436483E0
4.706571167E0,-4.105079919E-2,-1.206538081E0,1.240269169E-1,1.213590535E0
4.716591167E0,1.352429576E-2,-2.642562985E-1,1.615558006E-2,2.650948899E-1
4.726611167E0,-2.718956396E-2,2.656261027E-1,9.897276014E-2,2.847667573E-1
4.736632167E0,4.800825194E-2,9.802688956E-1,5.223641545E-2,9.828329172E-1
4.746652167E0,-2.308749557E-1,1.495806217E0,-6.519465148E-2,1.514922383E0
4.756672167E0,9.271321818E-3,2.713011503E0,-1.130851265E-2,2.713050913E0
4.766692167E0,1.605448127E-1,3.529920340E0,-7.818483748E-3,3.533577984E0
4.776713167E0,5.410596132E-1,3.599030972E0,-2.551891841E-2,3.639563250E0
4.786733167E0,7.833082676E-1,3.756679296E0,9.638069198E-3,3.837486687E0
4.796753167E0,-3.617612422E-1,3.190265894E-1,1.076836735E-1,4.942114270E-1
4.806773167E0,-3.170666099E-1,5.669175386E-1,-4.149799421E-2,6.508831034E-1
4.816794167E0,1.276695542E-2,2.014111429E-1,6.383161992E-2,2.116693633E-1
4.826814167E0,8.502181619E-2,-1.315922737E-1,-1.285001040E-1,2.026265344E-1
4.836834167E0,-2.044598013E-1,-1.429308534E0,-3.426894173E-2,1.444264884E0
4.846855167E0,-2.605611086E-1,-1.843096256E0,7.153440267E-2,1.862797110E0
4.856875167E0,-1.193951815E-1,-2.136059999E0,-2.029724605E-2,2.139490479E0
4.866895167E0,-1.701087803E-1,-2.970300198E0,-7.111835293E-3,2.975175766E0
4.876915167E0,1.751540750E-1,-2.783839941E0,-3.409604728E-2,2.789553066E0
4.886936167E0,5.495883524E-3,-2.030376434E0,-7.268263958E-3,2.030396882E0
4.896956167E0,-1.269223541E-1,-1.255133152E0,7.598081976E-2,1.263820240E0
4.906976167E0,5.844005942E-2,-1.297767311E-1,6.636570673E-3,1.424825763E-1
4.916997167E0,-1.392128319E-1,2.296426743E-1,5.441900715E-2,2.740025525E-1
4.927017167E0,-4.332787544E-2,1.048101187E0,-3.318639398E-1,1.100239554E0
4.937037167E0,5.095868558E-2,1.840285063E0,-5.244853348E-2,1.841737427E0
4.947057167E0,8.893610537E-2,2.516041279E0,-2.345784381E-2,2.517721910E0
4.957078167E0,2.342253923E-1,2.642593384E0,-1.108958945E-2,2.652976499E0
4.967098167E0,4.170494676E-1,2.516510248E0,2.680001548E-3,2.550835406E0
4.977118167E0,5.813497305E-1,2.408732414E0,4.618406668E-2,2.478324499E0
4.987138167E0,-3.086858392E-1,-4.207640588E-1,7.475320250E-2,5.271787001E-1
4.997159167E0,-2.632373869E-1,-7.238397002E-2,-5.891244859E-2,2.792920292E-1
5.007179167E0,1.085827276E-1,-4.357264340E-1,3.298171982E-2,4.502616216E-1
5.017199167E0,-3.649901450E-1,-1.457310796E0,-1.140271723E-1,1.506643540E0
5.027220167E0,-6.444319338E-2,-1.769206762E0,4.888829216E-2,1.771054928E0
5.037240167E0,-1.592277586E-1,-2.294611216E0,1.260937843E-2,2.300163713E0
5.047260167E0,3.013075143E-2,-2.158949137E0,-1.314876787E-2,2.159199418E0
5.057280167E0,-2.989770100E-2,-1.731960773E0,2.420499548E-2,1.732387911E0
5.067301167E0,-2.508022189E-1,-1.346542358E0,9.774242342E-2,1.373183039E0
5.077321167E0,8.538911492E-2,6.213083863E-2,1.518956618E-3,1.056117857E-1
5.087341167E0,1.387289539E-2,5.866951346E-1,1.708721183E-2,5.871078360E-1
5.097361167E0,-1.369531006E-1,1.009624004E0,-3.618331859E-3,1.018876771E0
5.107382167E0,1.218794808E-1,2.109149933E0,-2.248602509E-1,2.124601181E0
5.117402167E0,1.349649280E-1,1.973426342E0,-1.934356801E-2,1.978130742E0
5.127422167E0,2.628944814E-1,1.927833200E0,5.015056115E-3,1.945682272E0
5.137443167E0,4.391837716E-1,1.874574184E0,2.788655087E-2,1.925535878E0
5.147463167E0,-2.086239308E-2,7.646310329E-1,1.086570323E-1,7.725944645E-1
5.157483167E0,-2.398482561E-1,-7.948071957E-1,1.872101426E-2,8.304192559E-1
5.167503167E0,-2.888751030E-2,-5.990601182E-1,2.366352454E-2,6.002228552E-1
5.177524167E0,7.285296172E-2,-6.979896426E-1,-6.508791447E-2,7.047932547E-1
5.187544167E0,-1.463427991E-1,-1.860708833E0,4.053417221E-2,1.866894907E0
5.197564167E0,6.121844519E-3,-1.609615922E0,4.803872202E-3,1.609634732E0
5.207584167E0,9.579103440E-3,-1.539665461E0,1.811546460E-2,1.539801825E0
5.217605167E0,-1.174643338E-1,-1.019383907E0,2.954495326E-2,1.026554589E0
5.227625167E0,-2.465206981E-1,-7.893049121E-1,8.798635565E-3,8.269535143E-1
5.237645167E0,-3.427511156E-1,-6.527663022E-2,7.002817094E-2,3.558697942E-1
5.247666167E0,2.336179763E-1,1.320878625E0,-3.694707155E-2,1.341887770E0
5.257686083E0,1.541617662E-1,1.757753134E0,-4.359218851E-2,1.765038869E0
5.267706083E0,1.808314025E-1,1.719299197E0,-1.639561541E-2,1.728860475E0
5.277726083E0,2.888513505E-1,1.812273860E0,-1.482967660E-2,1.835208862E0
5.287747083E0,4.430023432E-1,1.625864863E0,-1.669932716E-2,1.685220015E0
5.297767083E0,-3.350167274E-1,-2.383942157E-1,-1.898911223E-2,4.116170503E-1
5.307787083E0,-4.588288441E-2,-3.132574558E-1,3.688055649E-2,3.187407225E-1
5.317807083E0,1.087708697E-1,-3.640721738E-1,-3.209425136E-2,3.813262262E-1
5.327828083E0,-2.077022493E-1,-1.300838590E0,4.648887552E-3,1.317324134E0
5.337848083E0,-5.831973627E-3,-1.436870694E0,6.071281619E-3,1.436895356E0
5.347868083E0,2.849433944E-2,-1.149210811E0,-2.949165879E-3,1.149567794E0
5.357889083E0,-3.516186774E-2,-9.869899154E-1,1.438668091E-2,9.877208242E-1
5.367909083E0,-1.757356972E-1,-6.379471421E-1,1.890288666E-2,6.619795394E-1
5.377929083E0,-2.912777364E-1,-4.336528480E-1,1.683440991E-2,5.226671117E-1
5.387949083E0,-3.715912998E-1,6.223917753E-2,3.456816822E-2,3.783500595E-1
5.397970083E0,2.745480239E-1,1.633364081E0,-3.305215389E-2,1.656607161E0
5.407990083E0,2.524197996E-1,1.682217956E0,-1.859838516E-2,1.701152229E0
5.418010083E0,2.749339044E-1,1.605266690E0,-1.375721069E-3,1.628641057E0
5.428030083E0,3.706589043E-1,1.460053802E0,-1.649159566E-2,1.506458463E0
5.438051083E0,-2.008296102E-1,-1.419789642E-1,1.559496857E-2,2.464422076E-1
5.448071083E0,9.584368207E-3,-1.880239099E-1,4.495717585E-3,1.883216989E-1
5.458091083E0,1.054416522E-1,-2.971003354E-1,-9.927163832E-3,3.154125867E-1
5.468112083E0,-8.025476336E-2,-1.166788816E0,9.992530569E-3,1.169588312E0
5.478132083E0,3.270294890E-2,-1.024565578E0,-4.884686321E-3,1.025099003E0
5.488152083E0,-4.038309678E-2,-1.022117138E0,1.220825315E-2,1.022987429E0
5.498172083E0,-6.603279710E-2,-7.549268603E-1,1.244793832E-2,7.579115027E-1
5.508193083E0,-1.846108586E-1,-5.276016593E-1,1.900949329E-2,5.592906586E-1
5.518213083E0,-2.813690901E-1,-3.004060984E-1,2.272857120E-3,4.116036378E-1
5.528233083E0,-3.156622648E-1,7.913945615E-2,1.642266288E-2,3.258457040E-1
5.538253083E0,2.557359934E-1,1.454879761E0,-7.719691843E-3,1.477205338E0
5.548274083E0,2.318768948E-1,1.425333142E0,-8.876059204E-3,1.444098420E0
5.558294083E0,2.491807789E-1,1.265477419E0,-3.208319657E-3,1.289780777E0
5.568314083E0,3.497420251E-1,1.178229451E0,-3.291181847E-2,1.229482538E0
5.578335083E0,-1.519112140E-1,-3.692121804E-1,3.129699454E-2,4.004674181E-1
5.588355083E0,-1.395227667E-2,-2.888404727E-1,-5.839925259E-3,2.892362173E-1
5.598375083E0,9.504477680E-2,-4.291842580E-1,-3.525904380E-3,4.395964842E-1
5.608395083E0,-8.149724454E-2,-1.043801546E0,5.323450081E-3,1.046991790E0
5.618416083E0,1.333632506E-2,-8.675926924E-1,-8.207290666E-4,8.676955751E-1
5.628436083E0,-8.063805290E-3,-6.606809497E-1,7.912095636E-3,6.607775295E-1
5.638456083E0,-6.364557892E-2,-4.174499512E-1,8.261768147E-3,4.223546830E-1
5.648476083E0,-1.535952985E-1,-2.228404284E-1,5.257696379E-3,2.706972767E-1
5.658497083E0,-2.145558447E-1,-2.467221022E-2,2.648864174E-3,2.159859832E-1
5.668517083E0,-2.066699266E-1,2.502828240E-1,-1.954197651E-3,3.245886158E-1
5.678537083E0,-3.834856302E-2,7.478494644E-1,3.921268042E-3,7.488423132E-1
5.688558083E0,2.085617483E-1,1.131122112E0,-1.143032685E-3,1.150189785E0
5.698578083E0,2.871891856E-1,1.079489708E0,-1.707356423E-3,1.117040095E0
5.708598083E0,3.833381236E-1,9.537564516E-1,-1.072601695E-2,1.027966212E0
5.718618083E0,-1.330690384E-1,-6.089821458E-1,1.639827900E-2,6.235667778E-1
5.728639083E0,-1.500593033E-2,-4.378907382E-1,1.569297723E-2,4.384287241E-1
5.738659083E0,6.921840459E-2,-5.330950618E-1,-9.949216619E-4,5.375709463E-1
5.748679083E0,-2.840288542E-2,-7.819507122E-1,-3.876240458E-3,7.824759839E-1
5.758699083E0,-2.225710824E-2,-6.433278322E-1,4.655994941E-3,6.437295681E-1
5.768720083E0,-2.002323046E-2,-3.358289301E-1,5.454477388E-3,3.364695401E-1
5.778740083E0,-2.986840531E-2,-6.427919120E-2,1.111394376E-3,7.088844232E-2
5.788760083E0,-8.761045337E-2,1.412146837E-1,-4.824913340E-4,1.661848706E-1
5.798781083E0,-1.189673245E-1,2.878800035E-1,-9.749098681E-4,3.114948974E-1
5.808801083E0,-8.186963201E-2,4.922847450E-1,1.646466088E-3,4.990487127E-1
5.818821083E0,4.544251412E-2,7.037613392E-1,-3.016362898E-4,7.052270100E-1
5.828841083E0,1.583620608E-1,7.719562054E-1,2.885044087E-4,7.880323652E-1
5.838862083E0,2.447475493E-1,6.832812428E-1,-3.416751744E-3,7.258004505E-1
5.848882083E0,-1.640279442E-1,-3.571904004E-1,2.251726808E-3,3.930587982E-1
5.858902083E0,4.232149571E-2,-3.842537105E-1,4.994516727E-3,3.866095811E-1
5.868922083E0,2.205285057E-2,-5.534803271E-1,-2.181629092E-2,5.543489436E-1
5.878943083E0,3.880333528E-2,-6.763225794E-1,-1.033781911E-3,6.774356050E-1
5.888963083E0,5.330725387E-2,-5.932889581E-1,-1.221551746E-2,5.958042212E-1
5.898983083E0,-3.216739744E-3,-2.853692174E-1,3.572657006E-4,2.853875703E-1
5.909004083E0,1.806096733E-2,-2.337090820E-1,1.192223057E-1,2.629830636E-1
5.919024083E0,-2.687722445E-4,-1.011672840E-1,1.307617873E-1,1.653285716E-1
5.929044083E0,-6.369215995E-2,-1.479965262E-2,1.923376024E-1,2.031488967E-1
5.939064083E0,-1.298402846E-1,1.748565733E-1,1.805504560E-1,2.828989005E-1
5.949085083E0,-1.031662971E-1,4.183540642E-1,1.684244871E-1,4.626339976E-1
5.959105083E0,-3.657182306E-2,4.793705642E-1,2.116558552E-1,5.252921445E-1
5.969125083E0,4.861088842E-2,5.431047678E-1,2.733926177E-1,6.099748607E-1
5.979145083E0,-6.679679751E-1,-8.091645241E-1,3.146359324E-1,1.095410523E0
5.989166083E0,-1.162694812E0,-1.938219428E0,3.222619295E-1,2.283069541E0
5.999186083E0,-1.341976404E0,-9.213111401E-1,2.013070285E-1,1.640194929E0
6.009206083E0,-1.484186053E0,-3.929167390E-1,2.505454421E-2,1.535519305E0
6.019227083E0,-1.753892899E0,1.298889518E-1,-3.003675044E-1,1.784161449E0
6.029247083E0,-1.293786883E0,1.048702598E0,2.675494552E-1,1.686785211E0
6.039267083E0,-6.509144902E-1,2.031873703E0,4.157309234E-1,2.173714015E0
6.049287083E0,-7.744743228E-1,1.937404990E0,4.230072796E-1,2.128916093E0
6.059308083E0,-7.899342179E-1,9.353091717E-1,4.571886659E-1,1.306836176E0
6.069328083E0,-7.339978814E-1,-3.772026002E-1,3.990649879E-1,9.166720003E-1
6.079348083E0,-6.262157559E-1,-1.640339136E0,3.055281043E-1,1.782191369E0
6.089368083E0,-4.119602740E-1,-2.522521734E0,2.170564234E-1,2.565139501E0
6.099389083E0,-1.814610362E-1,-2.855004549E0,1.559299529E-1,2.865011908E0
6.109409083E0,-3.969588131E-2,-2.760261774E0,1.285458058E-1,2.763538465E0
6.119429083E0,4.001891986E-2,-2.305692196E0,1.351789534E-1,2.309998131E0
6.129450083E0,7.445861399E-2,-1.671863079E0,1.580664665E-1,1.680968545E0
6.139470083E0,6.116847396E-1,-3.115344793E-2,2.062611580E-1,6.462758105E-1
6.149490083E0,6.999601126E-1,5.742356777E-1,2.667647302E-1,9.438507266E-1
6.159510083E0,6.138942242E-1,3.755561411E-1,3.181706667E-1,7.868552006E-1
6.169531083E0,7.147676945E-1,3.591824174E-1,3.619836271E-1,8.780301887E-1
6.179551083E0,8.147323728E-1,2.182495445E-1,4.045987427E-1,9.354794736E-1
6.189571083E0,8.740672469E-1,-8.718229830E-2,4.321335852E-1,9.789452185E-1
6.199591083E0,8.658023477E-1,-4.924370944E-1,4.554993808E-1,1.095256903E0
6.209612083E0,9.167627096E-1,-6.700645685E-1,4.761793017E-1,1.231335502E0
6.219632083E0,9.689723849E-1,-7.286117673E-1,4.854327142E-1,1.305920178E0
6.229652083E0,1.010858893E0,-7.237975001E-1,4.900816381E-1,1.336375148E0
6.239673083E0,1.051583648E0,-6.657032967E-1,4.836272001E-1,1.335246912E0
6.249693083E0,1.082265615E0,-5.396192074E-1,4.808043242E-1,1.301407142E0
6.259712792E0,1.125584126E0,-3.327459395E-1,4.822197855E-1,1.268934752E0
6.269732792E0,1.175111890E0,-6.122221798E-2,4.853267372E-1,1.272862190E0
6.279753792E0,1.221436024E0,2.386278808E-1,4.853807986E-1,1.335830732E0
6.289773792E0,1.219984293E0,4.451480806E-1,4.841824174E-1,1.385983803E0
6.299793792E0,1.239164591E0,6.840847731E-1,4.907801151E-1,1.498120817E0
6.309813792E0,1.235563636E0,8.391203284E-1,4.992961884E-1,1.574813356E0
6.319834792E0,1.232752919E0,9.411953092E-1,5.011430383E-1,1.629930279E0
6.329854792E0,1.230888486E0,9.463816881E-1,4.936491251E-1,1.629237313E0
6.339874792E0,1.243386388E0,9.222880602E-1,4.878604710E-1,1.623155203E0
6.349895792E0,1.254183650E0,8.632542491E-1,4.827940464E-1,1.597270991E0
6.359915792E0,1.272904634E0,8.200474381E-1,4.902967215E-1,1.591588792E0
6.369935792E0,1.296800375E0,8.275344372E-1,5.024312139E-1,1.618314426E0
6.379955792E0,1.331101298E0,8.988232613E-1,5.248132348E-1,1.689716797E0
6.389976792E0,1.349210262E0,9.852597713E-1,5.431230664E-1,1.756726448E0
6.399996792E0,1.352868438E0,1.092705607E0,5.627963543E-1,1.827839788E0
6.410016792E0,1.341305137E0,1.210507870E0,5.842502117E-1,1.898888381E0
6.420036792E0,1.080736041E0,6.816534400E-1,6.085100174E-1,1.415247768E0
6.430057792E0,1.081984401E0,8.107194304E-1,6.220069528E-1,1.488236839E0
6.440077792E0,1.145759106E0,9.474927783E-1,6.349371076E-1,1.616679196E0
6.450097792E0,1.183108926E0,9.709131718E-1,6.546817422E-1,1.664640292E0
6.460118792E0,1.208934665E0,9.514457583E-1,6.726011038E-1,1.679036718E0
6.470138792E0,1.082610726E0,5.434728265E-1,6.865831614E-1,1.392409830E0
6.480158792E0,1.153264403E0,6.197175384E-1,6.966762543E-1,1.483046329E0
6.490178792E0,1.076277852E0,3.333861828E-1,7.052868009E-1,1.329266652E0
6.500199792E0,1.085037827E0,3.020450473E-1,7.045168877E-1,1.328488744E0
6.510219792E0,1.070477009E0,3.032505810E-1,6.985492706E-1,1.313717255E0
6.520239792E0,1.007397056E0,2.159750760E-1,6.995788813E-1,1.245353232E0
6.530259792E0,9.952495694E-1,3.156062663E-1,7.172942758E-1,1.266743896E0
6.540280792E0,9.256017804E-1,3.347453475E-1,7.589508891E-1,1.242899656E0
6.550300792E0,8.839683533E-1,4.931166172E-1,7.748984098E-1,1.274767270E0
6.560320792E0,8.577013612E-1,7.117842436E-1,7.937626839E-1,1.368337543E0
6.570341792E0,8.436379433E-1,9.514017105E-1,8.267606497E-1,1.516714662E0
6.580361792E0,8.686220646E-1,1.214752316E0,8.534031510E-1,1.720007099E0
6.590381792E0,9.262347817E-1,1.443375111E0,8.641273975E-1,1.920405879E0
6.600401792E0,8.318794966E-1,1.337856174E0,7.617712021E-1,1.749907998E0
6.610422792E0,9.370377064E-1,1.428520560E0,7.990716696E-1,1.886061024E0
6.620442792E0,9.200534225E-1,1.297382474E0,7.835814357E-1,1.773048068E0
6.630462792E0,9.409276247E-1,1.166696548E0,7.765015960E-1,1.688040390E0
6.640482792E0,9.384889603E-1,1.046934247E0,7.679325938E-1,1.602046602E0
6.650503792E0,9.358343482E-1,9.843471050E-1,7.747836113E-1,1.563654308E0
6.660523792E0,9.249297380E-1,9.746007323E-1,7.867278457E-1,1.557010697E0
6.670543792E0,8.952900767E-1,9.926815033E-1,8.064036369E-1,1.561168701E0
6.680563792E0,8.525354266E-1,1.006809235E0,8.344661593E-1,1.561030192E0
6.690584792E0,7.917807698E-1,1.014224172E0,8.312588930E-1,1.531848166E0
6.700604792E0,7.474750876E-1,1.049942493E0,8.255424500E-1,1.530561525E0
6.710624792E0,5.676562786E-1,7.853877544E-1,7.399495244E-1,1.219259150E0
6.720645792E0,6.348864436E-1,1.117878914E0,8.341630697E-1,1.532501905E0
6.730665792E0,7.865035534E-1,1.381898522E0,8.571572900E-1,1.806363747E0
6.740685792E0,6.682932973E-1,1.140611053E0,8.620322347E-1,1.578198048E0
6.750705792E0,7.492351532E-1,1.183171153E0,8.454508185E-1,1.635858912E0
6.760726792E0,6.389949322E-1,9.841380119E-1,8.343071342E-1,1.439760586E0
6.770746792E0,6.774712205E-1,1.089620590E0,8.189671040E-1,1.522152227E0
6.780766792E0,6.085382104E-1,9.902772903E-1,8.073487878E-1,1.415196075E0
6.790787792E0,5.868002772E-1,1.010419965E0,7.916377187E-1,1.411372859E0
6.800807792E0,5.462219715E-1,1.014713764E0,7.749090791E-1,1.388699588E0
6.810827792E0,5.018900633E-1,1.051004648E0,7.605804205E-1,1.391038095E0
6.820847792E0,4.654372633E-1,1.183394432E0,7.329812646E-1,1.467758755E0
6.830868792E0,4.380215108E-1,1.217751980E0,7.230361104E-1,1.482418276E0
6.840888792E0,3.660452962E-1,6.824586987E-1,7.532104850E-1,1.080307858E0
6.850908792E0,5.041107535E-1,7.112435699E-1,7.892233133E-1,1.175954296E0
6.860928792E0,3.815526366E-1,3.290219009E-1,8.408194184E-1,9.802117731E-1
6.870949792E0,5.072765946E-1,7.372202277E-1,8.867684007E-1,1.259833880E0
6.880969792E0,4.220125675E-1,6.473163962E-1,9.422414899E-1,1.218577921E0
6.890989792E0,4.281478524E-1,7.889701128E-1,1.010445118E0,1.351585646E0
6.901009792E0,4.265683293E-1,9.800189137E-1,9.025618434E-1,1.398933698E0
6.911030792E0,4.101846516E-1,1.105911732E0,7.908455729E-1,1.420115815E0
6.921050792E0,4.100544155E-1,1.199132442E0,8.976476789E-1,1.553008240E0
6.931070792E0,3.728574216E-1,1.087802410E0,1.112875581E0,1.600258979E0
6.941091792E0,3.832170963E-1,1.041619182E0,1.236655831E0,1.661668892E0
6.951111792E0,3.754997551E-1,9.915671945E-1,1.222384572E0,1.618156238E0
6.961131792E0,3.550813198E-1,9.315214157E-1,1.207008719E0,1.565466365E0
6.971151792E0,3.678061962E-1,8.993113041E-1,1.189917564E0,1.536211584E0
6.981172792E0,3.136833012E-1,8.227419853E-1,1.185861588E0,1.477013640E0
6.991192792E0,3.203459382E-1,8.567088246E-1,1.194561720E0,1.504509632E0
7.001212792E0,3.120363355E-1,8.677364588E-1,1.184239030E0,1.500918158E0
7.011232792E0,2.742007375E-1,8.161150217E-1,1.150837541E0,1.437239304E0
7.021253792E0,2.879269123E-1,8.166591525E-1,1.130620956E0,1.424127040E0
7.031273792E0,2.771437168E-1,8.213016391E-1,1.129564047E0,1.423818794E0
7.041293792E0,2.478923798E-1,8.139651418E-1,1.146230340E0,1.427527189E0
7.051314792E0,2.356133163E-1,8.268486261E-1,1.183447003E0,1.462784706E0
7.061334792E0,2.408165932E-1,8.586715460E-1,1.205905676E0,1.499839310E0
7.071354792E0,2.362089008E-1,8.603460789E-1,1.172932625E0,1.473689575E0
7.081374792E0,2.176605165E-1,8.277359009E-1,1.089337587E0,1.385344434E0
7.091395792E0,2.209791690E-1,8.172403574E-1,1.004141450E0,1.313397749E0
7.101415792E0,2.127454728E-1,8.182404041E-1,9.677250981E-1,1.285017455E0
7.111435792E0,1.964239627E-1,8.197442889E-1,9.559539557E-1,1.274523847E0
7.121455792E0,1.944169998E-1,8.351008296E-1,9.406871200E-1,1.272825056E0
7.131476792E0,1.756079793E-1,8.403628469E-1,9.237079620E-1,1.261064739E0
7.141496792E0,1.609177142E-1,8.374751806E-1,9.176881313E-1,1.252761228E0
7.151516792E0,1.447556317E-1,8.172708154E-1,9.118393660E-1,1.233019387E0
7.161536792E0,1.084138602E-1,7.907997966E-1,9.218965769E-1,1.219430679E0
7.171557792E0,9.099184722E-2,7.835971117E-1,9.315311909E-1,1.220677807E0
7.181577792E0,7.698548585E-2,7.964521646E-1,7.959477901E-1,1.128625580E0
7.191597792E0,5.551958084E-2,7.285919785E-1,7.696205974E-1,1.061246700E0
7.201618792E0,4.552766681E-2,6.708290577E-1,7.451860905E-1,1.003686556E0
7.211638792E0,2.933124639E-2,6.543689370E-1,7.220363021E-1,9.748822746E-1
7.221658792E0,1.522075385E-2,6.505771279E-1,7.021467090E-1,9.573360286E-1
7.231678792E0,3.976924345E-4,6.752802134E-1,6.764280796E-1,9.558025275E-1
7.241699792E0,-1.263208874E-2,7.292917967E-1,6.505463719E-1,9.773621010E-1
7.251719792E0,-2.496467158E-2,7.908561230E-1,6.213383675E-1,1.006050699E0
7.261740208E0,-4.136708006E-2,8.380897045E-1,5.863620043E-1,1.023682562E0
7.271761208E0,-5.780418962E-2,8.933066726E-1,5.528715253E-1,1.052143079E0
7.281781208E0,-6.931091100E-2,9.269916415E-1,5.128471255E-1,1.061663638E0
7.291801208E0,-7.066027820E-2,9.441527724E-1,4.786443412E-1,1.060904208E0
7.301821208E0,-8.296142519E-2,9.339746833E-1,4.496510327E-1,1.039892955E0
7.311842208E0,-9.402371198E-2,9.372786283E-1,4.236445427E-1,1.032863197E0
7.327689500E0,6.495262384E-1,-2.103850842E-1,-2.490803003E-1,7.267648960E-1
7.337709500E0,6.590754986E-1,-1.649443656E-1,-2.438551784E-1,7.218396668E-1
7.347730500E0,6.684954762E-1,-1.029898673E-1,-2.344599366E-1,7.158663118E-1
7.357750500E0,6.750497818E-1,-1.324453391E-2,-2.248230278E-1,7.116270227E-1
7.367770875E0,6.890482903E-1,7.026170194E-2,-2.167078555E-1,7.257317326E-1
7.377791875E0,7.046338916E-1,1.248586327E-1,-2.045350820E-1,7.442668870E-1
7.387811875E0,7.256937027E-1,1.399033219E-1,-1.918096244E-1,7.635412377E-1
7.397831875E0,7.531791329E-1,1.158672199E-1,-1.787686497E-1,7.827274424E-1
7.407851875E0,7.817171812E-1,8.578673750E-2,-1.661606878E-1,8.037726606E-1
7.417872875E0,8.148533106E-1,7.826996595E-2,-1.397093683E-1,8.304401321E-1
7.427892875E0,8.484670520E-1,9.400141239E-2,-1.147883236E-1,8.613413743E-1
7.437912875E0,8.814159632E-1,1.067009643E-1,-8.931785077E-2,8.923322668E-1
7.447932875E0,9.055315852E-1,1.149633080E-1,-5.301845446E-2,9.143385426E-1
7.457953875E0,9.219513535E-1,1.017188728E-1,-3.048491478E-2,9.280465276E-1
7.467973875E0,9.312716722E-1,9.133704007E-2,-6.166570820E-3,9.357603374E-1
7.477993875E0,9.306495786E-1,9.170588851E-2,1.825408451E-2,9.353351376E-1
7.488014875E0,9.274128079E-1,1.056961864E-1,4.049261287E-2,9.342943069E-1
7.498034875E0,9.152125716E-1,1.266379654E-1,6.309033185E-2,9.260840218E-1
7.508054875E0,9.013707042E-1,1.518229544E-1,8.690169454E-2,9.181891201E-1
7.518074875E0,8.873310685E-1,1.610356271E-1,1.124475375E-1,9.088087516E-1
7.528095875E0,8.689695597E-1,1.721273363E-1,1.362326294E-1,8.962673958E-1
7.538115875E0,8.496347666E-1,1.648672968E-1,1.577826589E-1,8.797475943E-1
7.548135875E0,8.345134258E-1,1.431494355E-1,1.792898923E-1,8.654763337E-1
7.558155875E0,8.198109269E-1,1.204862073E-1,1.982156485E-1,8.519954961E-1
7.568176875E0,8.052179813E-1,1.043726802E-1,2.206614763E-1,8.414042672E-1
7.578196875E0,7.915980220E-1,9.683513641E-2,2.425585240E-1,8.335700988E-1
7.588216875E0,7.784562111E-1,9.747201949E-2,2.688567340E-1,8.293243097E-1
7.598236875E0,7.591003180E-1,1.154544801E-1,2.918363512E-1,8.214204073E-1
7.608257875E0,7.360840440E-1,1.523411572E-1,3.217103481E-1,8.176338399E-1
7.618277875E0,7.007579803E-1,1.877268553E-1,3.447600305E-1,8.032201428E-1
7.628297875E0,6.687089205E-1,2.101995498E-1,3.677008152E-1,7.915550269E-1
7.638318875E0,6.255401969E-1,2.151287943E-1,3.927473128E-1,7.693057830E-1
7.648338875E0,5.879946947E-1,1.910272241E-1,4.166563749E-1,7.455412102E-1
7.658358875E0,5.451028943E-1,1.453071386E-1,4.384090602E-1,7.144605196E-1
7.668378875E0,4.994432628E-1,8.827035874E-2,4.642942548E-1,6.876077254E-1
7.678399875E0,4.466141164E-1,3.266781569E-2,4.815992117E-1,6.576238711E-1
7.688419875E0,3.840418160E-1,-1.128460467E-2,5.056536794E-1,6.350599202E-1
7.698439875E0,3.080932796E-1,-3.947975859E-2,5.220147967E-1,6.074368842E-1
7.708459875E0,2.935970426E-1,-9.139738046E-3,5.269818306E-1,6.033179991E-1
7.718480875E0,1.770477742E-1,-9.330953471E-3,5.271158218E-1,5.561331411E-1
7.728500875E0,1.041027084E-1,-1.625618190E-1,5.026554465E-1,5.384479704E-1
7.738520875E0,6.330042332E-2,-1.843837500E-1,4.709784985E-1,5.097303766E-1
7.748541875E0,2.277076989E-2,-2.324149311E-1,4.374459982E-1,4.958772121E-1
7.758561875E0,-3.817833588E-2,-2.943792343E-1,3.869855106E-1,4.877237992E-1
7.768581875E0,-1.113791615E-1,-2.704483569E-1,3.553112149E-1,4.602104853E-1
7.778601875E0,-1.820717156E-1,-2.624122798E-1,3.131627440E-1,4.473043913E-1
7.788622875E0,-2.135428637E-1,-2.003255486E-1,2.552762330E-1,3.884544184E-1
7.798642875E0,-2.483346611E-1,-1.478575468E-1,2.144473195E-1,3.598883312E-1
7.808662875E0,-3.207253516E-1,-2.348353155E-2,1.630926132E-1,3.605765215E-1
7.818682875E0,-3.824360967E-1,1.146072298E-1,1.537089646E-1,4.278067682E-1
7.828703875E0,-4.349460602E-1,2.859256566E-1,1.364666373E-1,5.381028707E-1
7.838723875E0,-4.700758159E-1,4.813691974E-1,1.300366968E-1,6.852715662E-1
7.848743875E0,-5.050452948E-1,7.132378221E-1,1.169753671E-1,8.817381568E-1
7.858763875E0,-5.491690636E-1,9.676855803E-1,9.405779839E-2,1.116623890E0
7.868784875E0,-5.718589425E-1,1.240375042E0,7.359359413E-2,1.367833657E0
7.878804875E0,-5.871284604E-1,1.420941591E0,5.008187145E-2,1.538279243E0
7.888824875E0,-6.021479964E-1,1.530558944E0,3.394574299E-2,1.645097323E0
7.898845875E0,-6.582615972E-1,1.608482480E0,8.191619813E-2,1.739894963E0
7.908865875E0,-7.474354506E-1,1.541817546E0,1.050334945E-1,1.716651721E0
7.918885875E0,-8.400490284E-1,1.272209764E0,1.309849322E-1,1.530149373E0
7.928905875E0,-9.449155927E-1,9.036216140E-1,1.370879412E-1,1.314606634E0
7.938926875E0,-1.037095308E0,4.987281859E-1,1.341701895E-1,1.158575902E0
7.948946875E0,-1.133565664E0,1.544009596E-1,1.252903342E-1,1.150872903E0
7.958966875E0,-1.242544889E0,-1.205003858E-1,1.094471887E-1,1.253162732E0
7.968986875E0,-1.406156898E0,-4.061530232E-1,8.471857756E-2,1.466088243E0
7.979007875E0,-1.602096081E0,-6.967638135E-1,5.073983595E-2,1.747788945E0
7.989027875E0,-1.726607680E0,-8.436354399E-1,2.423533704E-3,1.921692148E0
7.999047875E0,-1.584666848E0,-7.187467813E-1,-1.578636281E-2,1.740119296E0
8.009068875E0,-1.477688193E0,-3.230673671E-1,1.355562126E-3,1.512592727E0
8.019088875E0,-1.535032988E0,2.990691662E-1,3.780651465E-2,1.564352253E0
8.029108875E0,-1.550953150E0,1.010678053E0,3.234307095E-2,1.851478294E0
8.039128875E0,-1.571440101E0,1.578773141E0,-4.241037648E-3,2.227547218E0
8.049149875E0,-1.625728130E0,1.907654881E0,-6.430206448E-2,2.507244275E0
8.059169875E0,-1.689438462E0,1.982740760E0,-1.281436235E-1,2.608042183E0
8.069189875E0,-1.770877004E0,1.801762938E0,-1.852428615E-1,2.533114677E0
8.079209875E0,-1.817486286E0,1.470466137E0,-2.288161665E-1,2.349017645E0
8.089230875E0,-1.867855430E0,9.826454520E-1,-2.691377401E-1,2.127653899E0
8.099250875E0,-1.958317161E0,4.104557335E-1,-2.923519611E-1,2.022115150E0
8.109270875E0,-2.030773878E0,-8.732990921E-2,-3.173870444E-1,2.057280631E0
8.119290875E0,-2.108968973E0,-4.988650084E-1,-3.257978559E-1,2.191520173E0
8.129311875E0,-2.162163496E0,-8.204526901E-1,-3.106520772E-1,2.333366305E0
8.139331875E0,-2.195826530E0,-1.038812995E0,-2.957761884E-1,2.447094225E0
8.149351875E0,-2.196923971E0,-1.087160110E0,-2.680132389E-1,2.465810848E0
8.159372875E0,-2.202091932E0,-9.806432128E-1,-2.398074567E-1,2.422473448E0
8.169392875E0,-2.211847782E0,-8.563998938E-1,-2.291533053E-1,2.382897947E0
8.179412875E0,-2.243929625E0,-7.799783945E-1,-2.168369889E-1,2.385498844E0
8.189432875E0,-2.462661266E0,-8.440804482E-1,1.863012277E-2,2.603366935E0
8.199453875E0,-2.457822084E0,-6.472795010E-1,-3.765038848E-1,2.569360879E0
8.209473875E0,-2.504040956E0,-4.572905004E-1,6.833688822E-4,2.545454022E0
8.219493875E0,-2.470370770E0,-3.155395091E-1,-4.114823416E-2,2.490781022E0
8.229513875E0,-2.454264879E0,-1.663526446E-1,-4.221528023E-2,2.460258407E0
8.239534875E0,-2.431382656E0,-7.919004560E-2,-5.056109279E-2,2.433197301E0
8.249554875E0,-2.421260357E0,-3.968323767E-2,-6.423214823E-2,2.422437253E0
8.259574875E0,-2.395673275E0,6.500376016E-2,-7.423604280E-2,2.397704510E0
8.269595875E0,-2.349407434E0,1.987482905E-1,-8.735374361E-2,2.359416634E0
8.279615875E0,-2.321255445E0,3.147398829E-1,-9.989563376E-2,2.344625167E0
8.289635875E0,-2.263310671E0,4.070856869E-1,-1.285688430E-1,2.303220332E0
8.299655875E0,-2.198306561E0,4.405656159E-1,-1.585429758E-1,2.247617777E0
8.309676875E0,-2.131752491E0,4.040769339E-1,-1.775881201E-1,2.176966787E0
8.319696875E0,-2.059944868E0,3.218968213E-1,-1.867121160E-1,2.093287328E0
8.329716875E0,-1.995109200E0,2.159159780E-1,-1.894531995E-1,2.015681757E0
8.339736875E0,-1.941192031E0,1.004466340E-1,-1.788652688E-1,1.952001232E0
8.349757875E0,-1.939964175E0,8.046828210E-3,-1.794826835E-1,1.948265841E0
8.359777875E0,-1.906944990E0,-2.809146792E-2,-1.554559022E-1,1.913477166E0
8.369797125E0,-1.845927596E0,-2.073247358E-2,-1.524273306E-1,1.852326272E0
8.379817125E0,-1.788034201E0,-1.387563068E-2,-1.473881006E-1,1.794152192E0
8.389838125E0,-1.717797995E0,-1.124077477E-2,-1.441377252E-1,1.723871222E0
8.399858125E0,-1.642582059E0,4.355761688E-3,-1.393512189E-1,1.648488264E0
8.409878125E0,-1.580972552E0,5.737127364E-2,-1.350185722E-1,1.587764368E0
8.419899125E0,-1.541590333E0,8.774010092E-2,-1.289244592E-1,1.549458162E0
8.429919125E0,-1.512522697E0,6.885337085E-2,-1.251147538E-1,1.519249617E0
8.439939125E0,-1.493300319E0,2.761006355E-2,-1.263837367E-1,1.498893261E0
8.449959125E0,-1.451307058E0,-1.329052914E-2,-1.388743222E-1,1.457996877E0
8.459980125E0,-1.442806840E0,-5.861699581E-2,-1.506207287E-1,1.451831303E0
8.470000125E0,-1.419901490E0,-3.734291345E-2,-1.580175906E-1,1.429155098E0
8.480020125E0,-1.388609886E0,4.205337539E-2,-1.673567593E-1,1.399290601E0
8.490040125E0,-1.368677974E0,1.595517993E-1,-1.661446691E-1,1.387926592E0
8.500061125E0,-1.364438772E0,2.836194336E-1,-1.544123739E-1,1.402132778E0
8.510081125E0,-1.359027863E0,4.213004410E-1,-1.460472196E-1,1.430307863E0
8.520101125E0,-1.367067337E0,5.197820663E-1,-1.352190822E-1,1.468785451E0
8.530121125E0,-1.361330986E0,5.921078324E-1,-1.248384193E-1,1.489764535E0
8.540142125E0,-1.352460504E0,6.871717572E-1,-1.198290139E-1,1.521746835E0
8.550162125E0,-1.350154638E0,7.419750094E-1,-1.197105870E-1,1.545242727E0
8.560182125E0,-1.354583383E0,7.823591828E-1,-1.219228730E-1,1.569027475E0
8.570203125E0,-1.359628558E0,7.986754775E-1,-1.273868978E-1,1.581992338E0
8.580223125E0,-1.382344723E0,7.402928472E-1,-1.312855035E-1,1.573577553E0
8.590243125E0,-1.407658696E0,6.331139207E-1,-1.314954460E-1,1.549073043E0
8.600263125E0,-1.457397819E0,4.253444672E-1,-1.297550648E-1,1.523733144E0
8.610284125E0,-1.497150660E0,1.832156330E-1,-1.185892373E-1,1.512974379E0
8.620304125E0,-1.530074716E0,-7.491683960E-2,-1.048606411E-1,1.535492404E0
8.630324125E0,-1.561940312E0,-3.330914378E-1,-8.108923584E-2,1.599119417E0
8.640344125E0,-1.594759226E0,-5.834584236E-1,-4.853635281E-2,1.698833864E0
8.650365125E0,-1.598647356E0,-8.088730574E-1,-1.684267446E-2,1.791712217E0
8.660385125E0,-1.614050746E0,-9.995967150E-1,1.784713008E-2,1.898597357E0
8.670405125E0,-1.621073127E0,-1.149846077E0,5.458157510E-2,1.988216093E0
8.680426125E0,-1.630629420E0,-1.258188248E0,8.608517051E-2,2.061407439E0
8.690446125E0,-1.644691110E0,-1.319867253E0,1.254708320E-1,2.112534341E0
8.700466125E0,-1.647852540E0,-1.347494364E0,1.627169997E-1,2.134862027E0
8.710486125E0,-1.641922593E0,-1.288909554E0,1.921944916E-1,2.096219541E0
8.720507125E0,-1.626404881E0,-1.137831926E0,2.223585099E-1,1.997322617E0
8.730527125E0,-1.603346825E0,-9.096453190E-1,2.517739832E-1,1.860528362E0
8.740547125E0,-1.570417285E0,-6.266607642E-1,2.633006573E-1,1.711210507E0
8.750567125E0,-1.538942218E0,-3.337580860E-1,2.618214190E-1,1.596335825E0
8.760588125E0,-1.506399035E0,-6.746090204E-2,2.525240779E-1,1.528907269E0
8.770608125E0,-1.478680611E0,1.463733613E-1,2.271786928E-1,1.503173865E0
8.780628125E0,-1.452374697E0,3.191129267E-1,1.989102960E-1,1.500263519E0
8.790648125E0,-1.417582154E0,4.527311027E-1,1.763924360E-1,1.498538924E0
8.800669125E0,-1.382026553E0,5.578396916E-1,1.564967483E-1,1.498557222E0
8.810689125E0,-1.349413991E0,6.293950081E-1,1.419172138E-1,1.495726142E0
8.820709125E0,-1.311904669E0,6.605225801E-1,1.172566190E-1,1.473476520E0
8.830730125E0,-1.272071719E0,6.642248631E-1,8.793935180E-2,1.437739356E0
8.840750125E0,-1.233618259E0,6.579467058E-1,5.788131803E-2,1.399306301E0
8.850770125E0,-1.198453546E0,6.414911747E-1,3.546745330E-2,1.359801371E0
8.860790125E0,-1.160387993E0,5.965766907E-1,1.153202727E-2,1.304813025E0
8.870811125E0,-1.119315386E0,5.238051414E-1,-7.463446818E-3,1.235837555E0
8.880831125E0,-1.085729718E0,4.318847954E-1,-2.040374465E-2,1.168652990E0
8.890851125E0,-1.050268650E0,3.416107893E-1,-2.984043397E-2,1.104831489E0
8.900871125E0,-1.011523366E0,2.802222669E-1,-4.928310961E-2,1.050777266E0
8.910892125E0,-9.694508314E-1,2.567176223E-1,-6.326533854E-2,1.004858873E0
8.920912125E0,-9.229733348E-1,2.540632486E-1,-7.673214376E-2,9.603727052E-1
8.930932125E0,-8.732155561E-1,2.501960695E-1,-9.543535858E-2,9.133517331E-1
8.940953125E0,-8.229358792E-1,2.394693792E-1,-1.112894267E-1,8.642652263E-1
8.950973125E0,-7.718890905E-1,2.106638253E-1,-1.232187226E-1,8.095522645E-1
8.960993125E0,-7.351332307E-1,1.743417680E-1,-1.364753991E-1,7.677509059E-1
8.971013125E0,-6.861169934E-1,1.765431166E-1,-1.422308385E-1,7.226019735E-1
8.981034125E0,-6.240350008E-1,2.260733843E-1,-1.443744153E-1,6.792443074E-1
8.991054125E0,-5.384232402E-1,3.242968023E-1,-1.464061588E-1,6.453702541E-1
9.001074125E0,-4.416290224E-1,4.440287948E-1,-1.537090838E-1,6.448443583E-1
9.011094125E0,-3.439817429E-1,5.461090803E-1,-1.580971926E-1,6.644947625E-1
9.021115125E0,-2.601233125E-1,5.961855650E-1,-1.707147211E-1,6.724915476E-1
9.031135125E0,-1.916757822E-1,6.073224545E-1,-1.718068868E-1,6.596194172E-1
9.041155125E0,-1.305655539E-1,6.298578382E-1,-1.577525884E-1,6.623097004E-1
9.051175125E0,-6.415788829E-2,6.542984843E-1,-1.457613856E-1,6.734011603E-1
9.061196125E0,1.824963652E-2,6.674547195E-1,-1.366088986E-1,6.815356506E-1
9.071216125E0,1.191825941E-1,6.518282890E-1,-1.238244176E-1,6.741046621E-1
9.081236125E0,2.236810476E-1,5.991387367E-1,-1.032166108E-1,6.478071516E-1
9.091257125E0,3.230695724E-1,5.464710593E-1,-6.970074773E-2,6.386413403E-1
9.101277125E0,4.264529645E-1,5.143586993E-1,-2.897542343E-2,6.687799172E-1
9.111297125E0,5.382097363E-1,5.102726221E-1,9.826871566E-3,7.417172214E-1
9.121317125E0,6.522143483E-1,5.052557588E-1,4.635159299E-2,8.263264537E-1
9.131338125E0,7.717213035E-1,4.731138349E-1,8.077854663E-2,9.087990122E-1
9.141358125E0,8.856154084E-1,3.891230822E-1,1.183895767E-1,9.745499046E-1
9.151378125E0,9.968734980E-1,2.813776135E-1,1.541660726E-1,1.047233169E0
9.161398125E0,1.111312151E0,2.044311464E-1,1.994430125E-1,1.147425076E0
9.171419125E0,1.229666233E0,1.707568020E-1,2.386162430E-1,1.264189322E0
9.181439125E0,1.353899479E0,2.090309560E-1,2.784622014E-1,1.397955270E0
9.191459125E0,1.475939870E0,2.921297848E-1,3.163074255E-1,1.537461771E0
9.201479125E0,1.595268726E0,4.067011178E-1,3.615156412E-1,1.685521186E0
9.211500125E0,1.721312284E0,5.433701873E-1,4.149012864E-1,1.852109667E0
9.221520125E0,1.863527775E0,6.863598824E-1,4.689389467E-1,2.040521843E0
9.231540125E0,2.020993233E0,8.307418227E-1,5.255804658E-1,2.247394146E0
9.241561125E0,2.183715105E0,9.031915069E-1,5.764313936E-1,2.432414379E0
9.251581125E0,2.348169804E0,9.310609102E-1,6.311105490E-1,2.603665948E0
9.261601125E0,2.525282621E0,8.999240398E-1,6.709775329E-1,2.763535135E0
9.271621125E0,2.706490755E0,7.682985067E-1,7.081838250E-1,2.901189262E0
9.281642125E0,2.897192001E0,5.957642794E-1,7.403787971E-1,3.049068273E0
9.291662125E0,3.090057135E0,4.026178420E-1,7.641336322E-1,3.208497223E0
9.301682125E0,3.292102575E0,2.644791305E-1,7.774496675E-1,3.392980484E0
9.311702125E0,3.490584135E0,1.789372116E-1,7.933054566E-1,3.584066082E0
9.321723125E0,3.686023474E0,2.152478099E-1,8.320046663E-1,3.784882090E0
9.331743125E0,3.871333122E0,3.057912290E-1,8.924933076E-1,3.984629559E0
9.341763125E0,4.072571754E0,4.335167110E-1,9.775762558E-1,4.210633298E0
9.351784125E0,4.348899364E0,5.339406133E-1,1.080326676E0,4.512773425E0
9.361804500E0,4.613304615E0,2.337203175E-1,1.137822032E0,4.757293730E0
9.371824500E0,5.334486485E0,1.601447612E-1,1.227599502E0,5.476257201E0
9.381844500E0,6.068877697E0,-8.949269652E-1,1.347588301E0,6.280777420E0
9.391865500E0,7.140686035E0,-2.486953259E0,1.298068166E0,7.671982438E0
9.401885500E0,8.648220062E0,-4.276998043E0,1.127998352E0,9.713742985E0
9.411905500E0,1.084158134E1,-5.214730263E0,1.073803306E0,1.207834224E1
9.421925500E0,1.317522144E1,-5.332889557E0,1.178817630E0,1.426239048E1
9.431946500E0,1.471905231E1,-5.337594509E0,9.054053426E-1,1.568311752E1
9.441966500E0,1.753716278E1,-5.722667217E0,-7.899918407E-2,1.844741823E1
9.451986500E0,1.813142014E1,-6.227958202E0,-1.555020332E0,1.923418695E1
9.462006500E0,1.784337807E1,-6.461503983E0,-2.728950739E0,1.917248932E1
9.472027500E0,1.732011414E1,-6.896984100E0,-3.698668480E0,1.900618036E1
9.482047500E0,1.703225899E1,-7.443813324E0,-4.754655361E0,1.918632197E1
9.492067500E0,1.664576912E1,-8.278800011E0,-5.933156967E0,1.951467424E1
9.502088500E0,1.600358582E1,-9.213416100E0,-7.238710403E0,1.983433194E1
9.512108500E0,1.522630596E1,-1.027188206E1,-8.520940781E0,2.024742912E1
9.522128500E0,1.424353504E1,-1.155212688E1,-9.845293999E0,2.081489226E1
9.532148500E0,1.287922382E1,-1.287164307E1,-1.126178932E1,2.140984587E1
9.542169500E0,1.123908997E1,-1.422984219E1,-1.268422222E1,2.212905432E1
9.552189500E0,9.267933846E0,-1.557120228E1,-1.398075199E1,2.288707855E1
9.562209500E0,6.867256165E0,-1.667153931E1,-1.507310200E1,2.350101772E1
9.572229500E0,4.199146271E0,-1.751232910E1,-1.584297276E1,2.398571003E1
9.582250500E0,1.367943406E0,-1.797653961E1,-1.620598221E1,2.424172240E1
9.592270500E0,-1.585831285E0,-1.796275330E1,-1.615558052E1,2.421111622E1
9.602290500E0,-4.417025089E0,-1.752634430E1,-1.566070652E1,2.391527930E1
9.612310500E0,-6.995829582E0,-1.672320557E1,-1.475368214E1,2.337259875E1
9.622331500E0,-9.300125122E0,-1.560212898E1,-1.356655788E1,2.267091196E1
9.632351500E0,-1.121417141E1,-1.431840515E1,-1.221188450E1,2.190672247E1
9.642371500E0,-1.273759365E1,-1.299532509E1,-1.077457237E1,2.114748628E1
9.652392500E0,-1.396387005E1,-1.165616035E1,-9.334234238E0,2.044464893E1
9.662412500E0,-1.489141464E1,-1.041561604E1,-7.940554619E0,1.983158327E1
9.672432500E0,-1.555513763E1,-9.326777458E0,-6.631191254E0,1.931123461E1
9.682452500E0,-1.605793190E1,-8.352133751E0,-5.423821449E0,1.889532096E1
9.692473500E0,-1.641827202E1,-7.538540840E0,-4.314933777E0,1.857438848E1
9.702493500E0,-1.663941383E1,-6.895688057E0,-3.288171530E0,1.830936041E1
9.712513500E0,-1.680161858E1,-6.386653423E0,-2.336347342E0,1.812573440E1
9.722533500E0,-1.689357948E1,-6.010523319E0,-1.444444776E0,1.798904775E1
9.732554500E0,-1.690473557E1,-5.800283432E0,-5.886329412E-1,1.788183048E1
9.742574500E0,-1.688434792E1,-5.713446140E0,2.390242219E-1,1.782643554E1
9.752594500E0,-1.681606293E1,-5.748105049E0,1.055562496E0,1.780266542E1
9.762615500E0,-1.668460274E1,-5.931300640E0,1.884505987E0,1.780751691E1
9.772635500E0,-1.650849915E1,-6.242609978E0,2.729101181E0,1.785913538E1
9.782655500E0,-1.627642059E1,-6.675582409E0,3.615900755E0,1.795995563E1
9.792675500E0,-1.594246292E1,-7.263037205E0,4.566362381E0,1.810429504E1
9.802696500E0,-1.551718903E1,-7.976861000E0,5.570295334E0,1.831506639E1
9.812716500E0,-1.497416115E1,-8.809547424E0,6.647685528E0,1.860175666E1
9.822736500E0,-1.425396633E1,-9.787777901E0,7.792533875E0,1.896575168E1
9.832756500E0,-1.334678745E1,-1.086909771E1,8.992450714E0,1.942004609E1
9.842777500E0,-1.222450924E1,-1.200949860E1,1.021558571E1,1.995056075E1
9.852797500E0,-1.081778622E1,-1.319749260E1,1.143284321E1,2.054040441E1
9.862817500E0,-9.123961449E0,-1.434493351E1,1.258533669E1,2.115217458E1
9.872837500E0,-7.159475803E0,-1.537268257E1,1.360057068E1,2.173828388E1
9.882858500E0,-4.912427902E0,-1.620725441E1,1.439904499E1,2.222924965E1
9.892878500E0,-2.472082615E0,-1.674889565E1,1.489875126E1,2.255237209E1
9.902898500E0,6.088837236E-2,-1.694140816E1,1.505007172E1,2.266097254E1
9.912919500E0,2.590399265E0,-1.676654434E1,1.483907413E1,2.253941656E1
9.922939500E0,5.005936146E0,-1.625184822E1,1.428162098E1,2.220690580E1
9.932959500E0,7.195476055E0,-1.543431854E1,1.343182468E1,2.168886763E1
9.942979500E0,9.111857414E0,-1.440082169E1,1.236457634E1,2.105450923E1
9.953000500E0,1.072303867E1,-1.325141525E1,1.117587757E1,2.038341983E1
9.963020500E0,1.203138256E1,-1.204636574E1,9.927675247E0,1.970857249E1
9.973040500E0,1.306451797E1,-1.087736225E1,8.678590775E0,1.908707880E1
9.983060500E0,1.386549377E1,-9.780766487E0,7.464965820E0,1.853755716E1
9.993081500E0,1.446492863E1,-8.778933525E0,6.322772503E0,1.806325791E1
1.000310150E1,1.489841175E1,-7.892238617E0,5.259601116E0,1.766107321E1
1.001312150E1,1.521050453E1,-7.137955189E0,4.277023792E0,1.733790025E1
1.002314250E1,1.541657448E1,-6.497817516E0,3.370923996E0,1.706621017E1
1.003316250E1,1.554528427E1,-5.971454144E0,2.532241344E0,1.684417923E1
1.004318250E1,1.561395741E1,-5.570080280E0,1.746419311E0,1.666947631E1
1.005320250E1,1.562842083E1,-5.275401115E0,1.009927392E0,1.652565726E1
1.006322350E1,1.560089111E1,-5.084226608E0,3.070726395E-1,1.641132101E1
1.007324350E1,1.554580021E1,-5.004783630E0,-3.767273724E-1,1.633590178E1
1.008326350E1,1.545962143E1,-5.021850109E0,-1.052163959E0,1.628882814E1
1.009328350E1,1.533281326E1,-5.191292286E0,-1.731920242E0,1.628017893E1
1.010330450E1,2.647505045E0,1.021495724E1,4.365367815E-2,1.055256082E1
1.011332450E1,9.984893799E-1,1.387481689E1,1.152822733E0,1.395838548E1
1.012334450E1,4.224289954E-1,9.736685753E0,1.101118803E0,9.807851871E0
1.013336450E1,-2.774560213E0,3.591151953E0,-1.068781495E0,4.662279551E0
1.014338550E1,3.748118579E-1,1.342242622E1,7.479430437E-1,1.344847309E1
1.015340550E1,-1.397336006E0,2.126820803E0,2.609578520E-2,2.544915643E0
1.016342550E1,-2.301695049E-1,9.608540535E0,-3.901531100E-1,9.619212476E0
1.017344650E1,-2.375737190E0,1.948141456E0,-3.593608141E-1,3.093302850E0
1.018346650E1,-1.315136909E0,6.798710346E0,-5.628973842E-1,6.947582380E0
1.019348650E1,-8.578780293E-1,7.824279308E0,-6.753384471E-1,7.900087558E0
1.020350650E1,-1.992182136E0,4.041300774E0,-9.134612679E-1,4.597315857E0
1.021352750E1,-1.231531382E0,6.593337536E0,-7.153751254E-1,6.745408140E0
1.022354750E1,-2.007733107E0,6.737751484E0,-9.161639214E-1,7.089967815E0
1.023356750E1,-8.193576336E-1,4.403454781E0,-6.456634402E-1,4.525333382E0
1.024358750E1,-6.244632602E-1,4.976523876E0,-1.136612058E0,5.142726050E0
1.025360850E1,-1.145447731E0,5.348346710E0,-1.056379557E0,5.570709183E0
1.026362850E1,-1.575057507E0,6.301630497E0,-1.075083733E0,6.583855869E0
1.027364850E1,-8.639579415E-1,5.731045246E0,-9.413139224E-1,5.871743765E0
1.028366850E1,-7.665756941E-1,5.802353382E0,-1.332135677E0,6.002460206E0
1.029368950E1,-1.131440997E0,5.828193188E0,-1.225342393E0,6.062133168E0
1.030370950E1,-5.745345950E-1,4.935212612E0,-1.433123469E0,5.171098182E0
1.031372950E1,-9.717454910E-1,5.298528671E0,-1.385558248E0,5.562235795E0
1.032375050E1,-8.600130677E-1,5.282068253E0,-1.404963970E0,5.532973094E0
1.033377050E1,-8.247500062E-1,3.784765720E0,-1.592135310E0,4.188025666E0
1.034379050E1,-1.037997961E0,2.649998665E0,-1.572268367E0,3.251455137E0
1.035381050E1,-1.103478909E0,2.636357307E0,-1.656893492E0,3.303534713E0
1.036383104E1,-1.201512575E0,1.844832182E0,-1.697670221E0,2.780129930E0
1.037385104E1,-1.244739294E0,1.913375020E0,-1.812858939E0,2.914933517E0
1.038387104E1,-1.193769693E0,1.409910440E0,-1.963283062E0,2.695814146E0
1.039389104E1,-1.080852389E0,1.190757275E0,-2.147703886E0,2.683053625E0
1.040391204E1,-1.090658188E0,9.984019399E-1,-2.347505808E0,2.774369340E0
1.041393204E1,-1.042178512E0,9.651615024E-1,-2.469803572E0,2.849140653E0
1.042395204E1,-9.960057139E-1,7.892237306E-1,-2.578067064E0,2.874253167E0
1.043397204E1,-1.011798620E0,6.790271401E-1,-2.680472136E0,2.944443101E0
1.044399304E1,-9.994740486E-1,5.267853737E-1,-2.761337757E0,2.983527679E0
1.045401304E1,-9.690477848E-1,4.293467999E-1,-2.859906673E0,3.049993191E0
1.046403304E1,-1.000273228E0,2.665051520E-1,-2.943741560E0,3.120446426E0
1.047405404E1,-1.004258037E0,1.252281219E-1,-3.026969671E0,3.191670672E0
1.048407404E1,-1.021054268E0,-7.709115744E-2,-3.118193150E0,3.282015141E0
1.049409404E1,-1.049242377E0,-3.007549644E-1,-3.213821173E0,3.394113971E0
1.050411404E1,-1.091330409E0,-5.070104003E-1,-3.306942463E0,3.519080855E0
1.051413504E1,-1.140038252E0,-7.122958899E-1,-3.394705534E0,3.651174922E0
1.052415504E1,-1.189198613E0,-9.621400833E-1,-3.484843969E0,3.805790900E0
1.053417504E1,-1.254187107E0,-1.208994508E0,-3.585144043E0,3.985964228E0
1.054419504E1,-1.325421333E0,-1.508964896E0,-3.714684486E0,4.222866041E0
1.055421604E1,-1.409474611E0,-1.797097683E0,-3.835551500E0,4.464037866E0
1.056423604E1,-1.499639153E0,-2.190043688E0,-3.981857538E0,4.785436072E0
1.057425604E1,-1.610433578E0,-2.608646870E0,-4.120446205E0,5.135816559E0
1.058427604E1,-1.710943937E0,-3.192166090E0,-4.250325203E0,5.584130893E0
1.059429704E1,-1.904315352E0,-3.995043755E0,-4.369994640E0,6.219617731E0
1.060431704E1,-2.118034601E0,-5.126004219E0,-4.421510220E0,7.093077079E0
1.061433704E1,-2.376031876E0,-6.133390427E0,-4.444539547E0,7.938383802E0
1.062435804E1,-2.738036871E0,-7.349271774E0,-4.387820244E0,8.986746242E0
1.063437804E1,-3.043524981E0,-7.814650536E0,-4.215822697E0,9.386424682E0
1.064439804E1,-3.342873812E0,-8.461936951E0,-4.005201817E0,9.940866354E0
1.065441804E1,-3.573937654E0,-8.915751457E0,-3.733098984E0,1.030532301E1
1.066443904E1,-3.294415712E0,-9.840277672E0,-3.147779226E0,1.084401925E1
1.067445904E1,-3.075714588E0,-1.154643154E1,-2.208009243E0,1.215135410E1
1.068447904E1,-2.085809231E0,-1.069888020E1,-1.175467610E0,1.096350134E1
1.069449904E1,-1.892664552E0,-8.841050148E0,-8.078336716E-1,9.077386301E0
1.070452004E1,-4.847932756E-1,-8.575857162E0,-6.746777892E-1,8.616004916E0
1.071454004E1,-3.505486846E-1,-9.139123917E0,-4.680116773E-1,9.157811162E0
1.072456004E1,-1.463186145E-1,-7.568660736E0,-9.381051660E-1,7.627979797E0
1.073458004E1,1.626758724E-1,-6.327605724E0,-6.298115849E-1,6.360952780E0
1.074460104E1,3.540983200E-1,-4.299263954E0,-8.164791465E-1,4.390409362E0
1.075462104E1,1.442658901E-1,-3.182324171E0,-7.714959979E-1,3.277683000E0
1.076464104E1,1.276176721E-1,-1.291689396E0,-6.233558059E-1,1.439902853E0
1.077466204E1,3.032962084E-1,-3.155892193E-1,-6.901599765E-1,8.172551245E-1
1.078468204E1,3.047255278E-1,3.162755668E-1,-6.244193316E-1,7.634051238E-1
1.079470204E1,1.926104277E-1,1.224786043E0,-5.671802759E-1,1.363412298E0
1.080472204E1,2.949096560E-1,1.529187441E0,-5.056580901E-1,1.637399169E0
1.081474304E1,3.282689750E-1,2.057084084E0,-4.371078908E-1,2.128478037E0
1.082476304E1,3.482877016E-1,2.585522413E0,-3.697858453E-1,2.634952000E0
1.083478304E1,4.390433431E-1,3.028845310E0,-2.933184505E-1,3.074524139E0
1.084480304E1,6.164961457E-1,3.389119148E0,-3.435043991E-1,3.461819084E0
1.085482404E1,8.241874576E-1,3.990057707E0,-5.891612768E-1,4.116668128E0
1.086484404E1,8.781194091E-1,4.664271355E0,5.802351236E-1,4.781547215E0
1.087486404E1,5.193255544E-1,3.446552515E0,-1.732314229E-1,3.489761080E0
1.088488504E1,4.402144551E-1,3.260900497E0,1.182960197E-1,3.292606076E0
1.089490504E1,2.982808053E-1,2.738633871E0,3.079309464E-1,2.771986361E0
1.090492504E1,1.626678556E-1,2.421698570E0,3.220659494E-1,2.448430369E0
1.091494504E1,-3.193933517E-4,2.393455267E0,3.549884260E-1,2.419637369E0
1.092496604E1,-2.004839182E-1,2.251550436E0,3.960170746E-1,2.294886204E0
1.093498604E1,-5.370769277E-2,2.009627819E0,4.543262720E-1,2.061043631E0
1.094500604E1,-1.583648473E-1,2.137686491E0,4.123988152E-1,2.182854952E0
1.095502604E1,-1.208487451E-1,2.211750984E0,3.918590248E-1,2.249444449E0
1.096504704E1,-1.570363045E-1,2.169335604E0,3.896882832E-1,2.209645745E0
1.097506704E1,-1.667924076E-1,2.084895372E0,3.899342418E-1,2.127594213E0
1.098508704E1,-1.393671781E-1,1.965496778E0,3.944637477E-1,2.009527916E0
1.099510704E1,-6.611250341E-2,1.838410020E0,4.417166114E-1,1.891886844E0
1.100512804E1,1.694856212E-2,1.635757327E0,5.156300068E-1,1.715186168E0
1.101514804E1,1.053722650E-1,1.473226905E0,5.811811090E-1,1.587221569E0
1.102516804E1,1.379046589E-1,1.287950516E0,6.057125330E-1,1.429937725E0
1.103518804E1,1.514127403E-1,1.102265954E0,6.136626005E-1,1.270628915E0
1.104520904E1,1.366662830E-1,8.625543118E-1,5.951001048E-1,1.056797875E0
1.105522904E1,9.571237862E-2,5.908108354E-1,5.657323599E-1,8.235723439E-1
1.106524904E1,5.897034332E-2,2.794885933E-1,5.302596092E-1,6.023011110E-1
1.107527004E1,1.991324499E-2,-4.248365387E-2,5.093679428E-1,5.115242901E-1
1.108529004E1,2.194967121E-3,-2.806213796E-1,4.816207588E-1,5.574152239E-1
1.109531004E1,-1.288912538E-2,-4.080467820E-1,4.552916288E-1,6.115216866E-1
1.110533004E1,-5.178352818E-2,-4.670954645E-1,4.255153537E-1,6.339739923E-1
1.111535104E1,-8.559668064E-2,-4.594447911E-1,3.997238278E-1,6.149759722E-1
1.112537104E1,-1.259643435E-1,-4.124011099E-1,3.700902760E-1,5.682503882E-1
1.113539104E1,-1.634717733E-1,-3.510304987E-1,3.439120948E-1,5.179005316E-1
1.114541104E1,-1.929527074E-1,-2.646807134E-1,3.128151596E-1,4.529237810E-1
1.115543204E1,-2.067773640E-1,-1.575021744E-1,2.843070924E-1,3.852198541E-1
1.116545204E1,-2.045980990E-1,-8.841792494E-2,2.552032769E-1,3.388315571E-1
1.117547204E1,-1.875298917E-1,-2.596249990E-2,2.276121378E-1,2.960553951E-1
1.118549204E1,-1.673524529E-1,1.177103072E-2,2.017616332E-1,2.623988515E-1
1.119551304E1,-1.347054392E-1,3.309994191E-2,1.725483686E-1,2.213912848E-1
1.120553304E1,-9.619878978E-2,6.285437196E-2,1.392729729E-1,1.805597968E-1
1.121555304E1,-5.691635981E-2,7.252591103E-2,1.057080925E-1,1.402628981E-1
1.122557404E1,-2.260978520E-2,6.057843566E-2,6.808853894E-2,9.389887321E-2
1.123559404E1,8.518179879E-3,5.309251323E-2,3.539561108E-2,6.437564472E-2
1.124561404E1,3.963588551E-2,2.462172508E-2,8.691826835E-3,4.746346616E-2
1.125563404E1,5.856518075E-2,-2.372639626E-2,-1.278794277E-2,6.446978948E-2
1.126565504E1,7.327301800E-2,-8.357801288E-2,-3.088492155E-2,1.153607290E-1
1.127567504E1,8.068316430E-2,-1.283863783E-1,-3.769518062E-2,1.562490377E-1
1.128569504E1,8.149462938E-2,-1.384911984E-1,-4.923199117E-2,1.680624158E-1
1.129571504E1,7.626967877E-2,-1.099846214E-1,-5.338840932E-2,1.440972002E-1
1.130573604E1,6.642477214E-2,-8.014682680E-2,-6.285009533E-2,1.215972807E-1
1.131575604E1,5.380417407E-2,-4.992429167E-2,-6.702589989E-2,9.939715942E-2
1.132577604E1,4.007824138E-2,-1.913255826E-2,-7.566972077E-2,8.773953988E-2
1.133579604E1,2.423173003E-2,8.205473423E-3,-7.535331696E-2,7.957781671E-2
1.134581704E1,9.273021482E-3,2.287576348E-2,-8.182985336E-2,8.547171686E-2
1.135583704E1,-6.928248331E-3,3.121929057E-2,-8.285089582E-2,8.880830855E-2
1.136585737E1,-1.523518004E-2,3.357246146E-2,-8.412122726E-2,9.184553204E-2
1.137587837E1,-2.024811879E-2,2.891607955E-2,-8.273480088E-2,8.995094912E-2
1.138589837E1,-2.147956565E-2,1.790044457E-2,-7.523800433E-2,8.026552779E-2
1.139591837E1,-7.713561878E-3,-3.016865812E-4,-6.153074279E-2,6.201308217E-2
1.140593837E1,1.171541866E-3,-2.323070355E-2,-4.063957557E-2,4.682534784E-2
1.141595937E1,1.222172286E-2,-4.114137217E-2,-2.390215732E-2,4.912531057E-2
1.142597937E1,1.868068799E-2,-4.771778360E-2,-5.270150490E-3,5.151436170E-2
1.143599937E1,2.122787945E-2,-3.752724081E-2,3.750010161E-3,4.327793023E-2
1.144601937E1,2.482740954E-2,-1.724060997E-2,1.129128318E-2,3.226657671E-2
1.145604037E1,2.536125109E-2,1.251390204E-2,1.132427808E-2,3.046358605E-2
1.146606037E1,2.113428339E-2,3.189319372E-2,1.062200218E-2,3.970718664E-2
1.147608037E1,1.180289313E-2,3.781320900E-2,9.179521352E-3,4.066215284E-2
1.148610037E1,2.181957476E-3,2.725430951E-2,5.013804417E-3,2.779742002E-2
1.149612137E1,-7.566992193E-3,1.416753698E-2,5.384334363E-3,1.694017507E-2
1.150614137E1,-1.508003566E-2,-2.708915388E-3,5.449049175E-3,1.626154467E-2
1.151616137E1,-1.478023734E-2,-6.043691188E-3,-2.417083364E-3,1.615004368E-2
1.152618237E1,-1.309898403E-2,-9.948417544E-3,-7.079745643E-3,1.790746192E-2
1.153620237E1,-8.992656134E-3,-8.506582119E-3,-6.707701832E-3,1.407917141E-2
1.154622237E1,-3.011627123E-4,-8.878093213E-3,-4.895154387E-3,1.014267098E-2
1.155624237E1,3.072820138E-3,-9.649572894E-3,-2.367542591E-3,1.040008358E-2
1.156626337E1,6.524543278E-3,-9.930269793E-3,-2.151760273E-4,1.188386401E-2
1.157628337E1,1.207436994E-2,-3.047875594E-3,5.195911042E-3,1.349360762E-2
1.158630337E1,1.338358037E-2,2.805429976E-4,2.711981069E-3,1.365846877E-2
1.159632337E1,9.211933240E-3,7.745272480E-3,3.756989492E-3,1.260808986E-2
1.160634437E1,3.357772715E-3,7.985755801E-3,4.433698952E-3,9.731629860E-3
1.161636437E1,3.243327606E-3,1.883058925E-3,9.178873152E-4,3.861036390E-3
1.162638437E1,-2.941489220E-4,-3.615303431E-3,1.277946634E-3,3.845788617E-3
1.163640437E1,-4.266222939E-3,-2.698839642E-3,-2.533435356E-3,5.648246478E-3
1.164642537E1,-6.897692569E-3,-2.616814338E-3,-1.058044145E-3,7.452874443E-3
1.165644537E1,-4.712983035E-3,-5.548091140E-4,-3.741950262E-3,6.043361151E-3
1.166646537E1,-1.523314975E-3,7.823641645E-4,-2.223948482E-3,2.806871756E-3
1.167648637E1,8.632196113E-4,4.521001829E-4,-2.513211919E-3,2.695510494E-3
1.168650637E1,4.050224554E-3,-7.164948620E-4,-1.203618012E-4,4.114871904E-3
1.169652637E1,4.829389974E-3,-1.222756924E-3,2.403967548E-3,5.531473763E-3
1.170654637E1,7.733567152E-3,6.008776836E-5,-2.131209476E-4,7.736736520E-3
1.171656737E1,4.812031053E-3,1.529306290E-3,-5.621470045E-4,5.080396622E-3
1.172658737E1,5.084206350E-3,-4.952286836E-4,6.780871190E-4,5.153077508E-3
1.173660737E1,4.784334451E-3,-3.640954616E-3,-6.979681784E-4,6.052566912E-3
1.174662737E1,1.612775493E-3,-3.418846754E-3,-1.351507963E-3,4.014490216E-3
1.175664837E1,-5.093999207E-4,-1.090321923E-3,-1.748954062E-3,2.123000350E-3
1.176666837E1,-2.096110955E-3,-1.365692820E-3,8.409970906E-5,2.503172143E-3
1.177668837E1,-1.429058611E-3,-1.798154321E-3,-1.426931354E-3,2.704015637E-3
1.178670837E1,2.391450107E-4,-4.881455097E-4,-4.581594840E-5,5.455047900E-4
1.179672937E1,-1.890347339E-3,-4.973879550E-4,1.109737786E-4,1.957836311E-3
1.180674937E1,-1.921506599E-3,2.699736739E-3,-1.405430026E-3,3.599444349E-3
1.181676937E1,3.707040101E-3,1.217230107E-3,7.397992304E-4,3.971284219E-3
1.182679037E1,1.308064442E-3,-2.439822536E-3,1.090271166E-3,2.975308019E-3
1.183681037E1,9.989412501E-4,-2.143688267E-3,2.692973358E-4,2.380294953E-3
1.184683037E1,3.623752855E-3,1.475281315E-3,-2.490802901E-3,4.638118024E-3
1.185685037E1,3.269261681E-3,-5.823140964E-4,-2.466307022E-3,4.136403265E-3
1.186687137E1,1.678822096E-3,-1.567950007E-3,1.089695725E-4,2.299735903E-3
1.187689137E1,-5.604578182E-4,5.708145909E-5,9.863963351E-4,1.135935293E-3
1.188691137E1,6.954888813E-4,-1.640151022E-3,-2.455739304E-3,3.033884588E-3
1.189693137E1,6.323391572E-4,1.357312547E-3,-2.204675227E-3,2.665097187E-3
1.190695237E1,-5.076173693E-5,4.672841169E-4,-9.228957351E-4,1.035696740E-3
1.191697237E1,-1.207678579E-3,2.105619758E-3,-6.980070611E-4,2.525734739E-3
1.192699237E1,-7.778443396E-4,2.258751541E-3,1.178988838E-3,2.664022339E-3
1.193701237E1,1.333748922E-3,-1.800914761E-4,-2.256318694E-4,1.364635067E-3
1.194703337E1,6.154943258E-4,2.456970513E-3,-1.547092339E-3,2.968001360E-3
1.195705337E1,3.657549620E-3,-3.628984559E-4,1.194081386E-3,3.864607983E-3
1.196707337E1,5.411184393E-4,-3.509141970E-4,-1.010138076E-4,6.528045101E-4
1.197709437E1,2.158751711E-3,-1.480598003E-4,1.704413444E-3,2.754479233E-3
1.198711437E1,1.149680000E-3,-1.788300928E-3,1.833576825E-3,2.807452277E-3
1.199713437E1,1.681194641E-3,-1.641490497E-3,2.136263065E-4,2.359352172E-3
1.200715437E1,7.139346562E-4,4.562817048E-4,2.950823167E-3,3.070057500E-3
1.201717537E1,2.811476588E-4,1.557461568E-3,-1.943754032E-4,1.594525741E-3
1.202719537E1,6.840839051E-4,-7.475044113E-4,3.278704826E-4,1.065003609E-3
1.203721537E1,1.603063662E-3,6.903663743E-4,3.172612633E-4,1.773999308E-3
1.204723537E1,1.084546093E-3,-2.272133948E-3,6.935659330E-4,2.611487432E-3
1.205725637E1,-1.218915917E-3,8.337631589E-4,3.078405280E-3,3.414307556E-3
1.206727637E1,2.667967696E-3,2.709960099E-3,3.136728425E-3,4.929604505E-3
1.207729637E1,2.721645869E-4,2.374364529E-3,3.619753406E-4,2.417169135E-3
1.208731637E1,-7.467344403E-6,-5.710148253E-5,7.041915087E-4,7.065422998E-4
1.209733737E1,-9.099394083E-4,-3.062873147E-4,1.278261188E-3,1.598672359E-3
1.210735737E1,2.096237149E-3,-1.188326394E-3,4.026138049E-4,2.443036570E-3
1.211737737E1,1.110643148E-3,5.538368132E-4,7.173451595E-4,1.433473926E-3
1.212739837E1,3.907761071E-3,-5.686855875E-4,5.234670825E-4,3.983468046E-3
1.213741837E1,3.031175118E-3,-1.000962919E-3,1.274645096E-3,3.437247370E-3
1.214743837E1,-3.470443189E-4,1.589227468E-3,-5.962256109E-4,1.732503588E-3
1.215745837E1,-1.690318808E-3,-1.186204609E-4,2.223936026E-4,1.709007724E-3
1.216747937E1,7.049283013E-4,1.303773839E-3,4.943023669E-4,1.562397185E-3
1.217749937E1,1.581302844E-3,1.396809239E-4,1.231099712E-3,2.008889232E-3
1.218751937E1,2.129706554E-4,-1.749299001E-3,4.715662217E-4,1.824219887E-3
1.219753937E1,1.691738144E-4,-4.134762567E-4,2.157968702E-3,2.203726687E-3
1.220756037E1,-2.595949918E-4,8.699010359E-4,6.407658802E-4,1.111169782E-3
1.221758037E1,-4.579024389E-4,1.593949972E-3,2.858062508E-4,1.682865523E-3
1.222760037E1,1.894467510E-3,-9.248678107E-4,-3.416345571E-4,2.135673614E-3
1.223762037E1,-1.346888952E-3,-4.911383148E-4,1.068150508E-3,1.787812127E-3
1.224764137E1,5.372972228E-4,-2.108475892E-3,-5.366704427E-4,2.241065384E-3
1.225766137E1,-3.985967487E-5,-8.666603826E-4,1.346944133E-3,1.602169626E-3
1.226768137E1,-9.615793824E-4,5.930181360E-4,-1.396910870E-3,1.796570454E-3
1.227770237E1,-4.358943552E-4,1.389993820E-3,-1.098413486E-5,1.456779791E-3
1.228772237E1,2.283192705E-3,4.432400456E-4,-1.281844685E-3,2.655664976E-3
1.229774237E1,4.789163359E-4,2.562184352E-3,6.232234882E-4,2.680029296E-3
1.230776237E1,2.674609423E-4,-3.097565612E-3,1.199265243E-3,3.332369307E-3
1.231778337E1,5.262354389E-4,6.806680467E-4,-1.369814854E-3,1.617598671E-3
1.232780337E1,1.561938785E-3,3.539571539E-3,-2.198590664E-3,4.449946107E-3
1.233782337E1,1.668785233E-3,-1.087027369E-3,-2.180057811E-3,2.952816404E-3
1.234784337E1,3.326772712E-4,-4.883487709E-4,1.350761042E-3,1.474352089E-3
1.235786437E1,4.597357474E-4,-4.778092261E-4,-1.181462663E-3,1.354810924E-3
1.236788429E1,1.511151902E-3,9.935873095E-4,-4.163365811E-4,1.855837267E-3
1.237790429E1,-3.480124287E-4,-5.119892303E-4,-1.361440402E-3,1.495582024E-3
1.238792429E1,-5.559762940E-5,1.059808419E-3,1.144061564E-3,1.560500510E-3
1.239794529E1,2.329382114E-4,1.066545956E-4,2.091696020E-3,2.107327135E-3
1.240796529E1,3.762161359E-4,-1.733589917E-3,-9.669445571E-4,2.020359958E-3
1.241798529E1,1.136795618E-3,-3.224061802E-4,-1.486534602E-3,1.898956330E-3
1.242800629E1,1.050509047E-3,1.404511277E-4,-5.296608433E-4,1.184836016E-3
1.243802629E1,-1.392340288E-3,7.863774663E-4,1.226356952E-3,2.015180480E-3
1.244804629E1,1.861243974E-3,1.718483865E-3,-1.124947914E-3,2.771808748E-3
1.245806629E1,1.817089505E-3,-1.138654537E-3,-2.474818029E-4,2.158609661E-3
1.246808729E1,1.572724432E-5,-1.447847579E-3,1.778250444E-4,1.458811744E-3
1.247810729E1,1.315032132E-3,-1.282627229E-3,-1.479782513E-3,2.358855316E-3
1.248812729E1,-3.553023562E-4,-6.754265632E-4,-1.057671499E-3,1.304266003E-3
1.249814729E1,2.932883799E-4,2.017508261E-3,-6.749676540E-4,2.147542547E-3
1.250816829E1,4.735973664E-3,1.438537147E-3,-5.388801219E-4,4.978878132E-3
1.251818829E1,1.389465295E-3,-5.430032033E-4,-3.327146871E-3,3.646282022E-3
1.252820829E1,1.148182899E-3,3.480904270E-4,-5.790310097E-4,1.332204123E-3
1.253822829E1,1.222851221E-3,-4.845475778E-4,-1.761792460E-3,2.198650526E-3
1.254824929E1,-9.625386447E-4,-9.900154546E-4,-2.626992646E-4,1.405568265E-3
1.255826929E1,-2.406259999E-3,1.454902231E-3,-5.129875499E-4,2.858318371E-3
1.256828929E1,1.277690753E-3,2.285165247E-4,1.043097465E-3,1.665162390E-3
1.257831029E1,2.720672637E-5,-2.382346429E-4,6.823983858E-4,7.233004272E-4
1.258833029E1,1.474634744E-3,1.722384710E-3,1.133537851E-3,2.534968398E-3
1.259835029E1,7.225899026E-4,-1.181738684E-3,2.042563166E-3,2.467935731E-3
1.260837029E1,-1.288362779E-3,1.116036554E-3,1.147208270E-3,2.054629663E-3
1.261839129E1,-1.853619702E-3,-1.172049902E-3,9.996670997E-4,2.410174534E-3
1.263510629E1,5.507375598E-1,8.931860328E-2,2.382580563E-2,5.584418875E-1
1.264512629E1,5.325177908E-1,7.903879881E-2,3.805534169E-2,5.396948566E-1
1.265514629E1,5.060307980E-1,5.959719047E-2,6.048208848E-2,5.131053270E-1
1.266516729E1,4.864219427E-1,5.714201927E-2,7.889571041E-2,4.960806888E-1
1.267518729E1,4.608640075E-1,1.156810746E-1,1.012505293E-1,4.858285851E-1
1.268520729E1,4.276733100E-1,2.233026177E-1,9.322216362E-2,4.913846670E-1
1.269522729E1,3.851712644E-1,4.727535844E-1,1.423830092E-1,6.261994696E-1
1.270524829E1,2.910996377E-1,7.888154387E-1,2.880994678E-1,8.888026208E-1
1.271526829E1,1.147905812E-1,6.182283759E-1,-2.375772297E-1,6.721801413E-1
1.272528829E1,6.097020507E-1,1.002677560E0,-7.026242614E-1,1.367764502E0
1.273530929E1,2.120511383E-1,2.327546328E-1,-3.395563960E-1,4.630755342E-1
1.274532929E1,1.177890822E-1,4.521120191E-1,-3.654561639E-1,5.931591299E-1
1.275534929E1,3.818914592E-1,8.117842674E-1,-2.110644877E-1,9.216197705E-1
1.276536929E1,9.394169599E-2,2.286750525E-1,-1.700201184E-1,3.000402682E-1
1.277539029E1,2.771486640E-1,7.055957317E-1,-5.957319960E-2,7.604115233E-1
1.278541029E1,7.550156862E-2,1.231112629E-1,4.214517027E-2,1.504429636E-1
1.279543029E1,1.565536708E-1,2.052249610E-1,1.108861789E-1,2.809307408E-1
1.280545029E1,1.180233993E-2,-4.976950586E-1,1.375976801E-1,5.165005209E-1
1.281547129E1,3.738576919E-2,-8.971046209E-1,1.349600405E-1,9.079694979E-1
1.282549129E1,-6.215306744E-2,-1.436484456E0,1.377606243E-1,1.444412886E0
1.283551129E1,-7.583545893E-2,-1.869116783E0,1.525899917E-1,1.876867676E0
1.284553129E1,-1.110546961E-1,-2.181434631E0,7.633863389E-2,2.185593234E0
1.285555229E1,-1.317418367E-1,-2.285591125E0,4.056247883E-3,2.289388381E0
1.286557229E1,-9.746029973E-2,-2.149396896E0,-2.690539509E-2,2.151773554E0
1.287559229E1,-9.881352633E-2,-1.813823819E0,-3.669385985E-2,1.816883981E0
1.288561229E1,-1.333435476E-1,-1.532677412E0,-2.084405720E-2,1.538608146E0
1.289563329E1,-1.801454127E-1,-1.233814001E0,3.202568367E-2,1.247307101E0
1.290565329E1,-2.012512237E-1,-9.443538189E-1,1.071675718E-1,9.714891038E-1
1.291567329E1,-2.154359818E-1,-7.641284466E-1,1.946112067E-1,8.174218414E-1
1.292569329E1,-2.546760738E-1,-7.290820479E-1,2.726679146E-1,8.190044730E-1
1.293571429E1,-3.050560355E-1,-8.297587633E-1,3.213405013E-1,9.406479192E-1
1.294573429E1,-3.069031835E-1,-9.472675920E-1,3.169316351E-1,1.044964648E0
1.295575429E1,-2.479457259E-1,-9.519708753E-1,2.448143959E-1,1.013735527E0
1.296577429E1,-1.437063962E-1,-8.549047709E-1,1.572145075E-1,8.810392142E-1
1.297579529E1,-6.745158136E-2,-7.266489267E-1,8.969931304E-2,7.352648131E-1
1.298581529E1,-8.417543024E-2,-7.509992719E-1,3.894052655E-2,7.567045487E-1
1.299583529E1,-1.303752810E-1,-9.195781350E-1,-1.084477454E-2,9.288375904E-1
1.300585529E1,-1.923534274E-1,-1.128897786E0,-3.635412827E-2,1.145745031E0
1.301587629E1,-2.651877105E-1,-1.275121927E0,-3.047427163E-2,1.302762117E0
1.302589629E1,-3.453182280E-1,-1.379639745E0,-1.767964661E-2,1.422309064E0
1.303591629E1,-4.195956588E-1,-1.446386218E0,-2.120858291E-3,1.506020620E0
1.304593729E1,-5.284147859E-1,-1.444306016E0,9.492336540E-4,1.537934639E0
1.305595729E1,-6.442369819E-1,-1.443570375E0,-9.177623317E-3,1.580829196E0
1.306597729E1,-7.158469558E-1,-1.349662304E0,-3.052285686E-2,1.528056558E0
1.307599729E1,-7.702081800E-1,-1.237611890E0,-4.050737619E-2,1.458267698E0
1.308601829E1,-7.907741666E-1,-1.065265059E0,-4.580147192E-2,1.327483034E0
1.309603829E1,-7.437314391E-1,-8.510079384E-1,-4.871680588E-2,1.131248996E0
1.310605829E1,-6.248484850E-1,-5.626429915E-1,-5.741069466E-2,8.427922360E-1
1.311607829E1,-4.552045465E-1,-1.805453748E-1,-6.486301124E-2,4.939787664E-1
1.312609929E1,-3.265634775E-1,1.601027548E-1,-6.266377121E-2,3.690573738E-1
1.313611929E1,-2.464480251E-1,3.384906054E-1,-4.236546159E-2,4.208412424E-1
1.314613929E1,-2.141662538E-1,3.587261140E-1,-1.959064417E-2,4.182527974E-1
1.315615929E1,-2.140075564E-1,2.866808772E-1,-2.099008067E-3,3.577562933E-1
1.316618029E1,-2.428008467E-1,1.514764726E-1,6.099266931E-3,2.862421597E-1
1.317620029E1,-2.760971785E-1,-1.755790785E-2,1.916489936E-2,2.773179140E-1
1.318622029E1,-3.012789488E-1,-1.361306310E-1,2.289758623E-2,3.313983300E-1
1.319624029E1,-3.004968166E-1,-1.952405721E-1,2.275043912E-2,3.590749229E-1
1.320626129E1,-2.895919681E-1,-1.713120788E-1,2.975135855E-2,3.377817041E-1
1.321628129E1,-2.858431637E-1,-6.061972305E-2,6.355302781E-2,2.990318585E-1
1.322630129E1,-2.841491401E-1,9.220257401E-2,1.137669310E-1,3.196638282E-1
1.323632129E1,-2.751283944E-1,2.496992648E-1,1.724525690E-1,4.096159723E-1
1.324634229E1,-2.944661379E-1,3.749474585E-1,2.412417531E-1,5.343159051E-1
1.325636229E1,-3.419812918E-1,3.916352093E-1,3.052971363E-1,6.029392030E-1
1.326638229E1,-4.050281644E-1,3.204321265E-1,3.721517920E-1,6.365701202E-1
1.327640229E1,-4.663786292E-1,2.120663226E-1,4.223263562E-1,6.639583587E-1
1.328642329E1,-5.122337937E-1,2.244552225E-2,4.519063532E-1,6.834519830E-1
1.329644292E1,-5.382634997E-1,-1.733985394E-1,4.432564080E-1,7.185199314E-1
1.330646292E1,-5.061444640E-1,-3.117577732E-1,4.326056242E-1,7.352025256E-1
1.331648292E1,-5.127766728E-1,-6.193473935E-1,2.492360771E-1,8.418133595E-1
1.332650392E1,-5.069286227E-1,-7.987254262E-1,5.282049254E-2,9.474855880E-1
1.333652392E1,-5.068461895E-1,-8.704319596E-1,8.247411251E-2,1.010617057E0
1.334654392E1,-4.816510677E-1,-8.102738261E-1,-9.630782530E-3,9.426686461E-1
1.335656392E1,-4.542623460E-1,-5.450739861E-1,-5.767334625E-2,7.118891375E-1
1.336658492E1,-4.213494062E-1,-1.053059325E-1,-9.182199836E-2,4.439098342E-1
1.337660492E1,-3.998931050E-1,3.697927892E-1,-1.337581873E-1,5.608497616E-1
1.338662492E1,-3.677721918E-1,7.896103263E-1,-1.927797049E-1,8.921350049E-1
1.339664592E1,-3.560590446E-1,1.094224691E0,-2.572793961E-1,1.179109158E0
1.340666592E1,-3.449930847E-1,1.360248089E0,-3.013160825E-1,1.435300133E0
1.341668592E1,-3.173211813E-1,1.504675508E0,-3.248476982E-1,1.571708351E0
1.342670592E1,-2.733483911E-1,1.540046096E0,-3.345940709E-1,1.599504458E0
1.343672692E1,-2.137551755E-1,1.526108861E0,-3.191155493E-1,1.573700818E0
1.344674692E1,-1.302818656E-1,1.428052545E0,-3.033557534E-1,1.465718987E0
1.345676692E1,-6.395958364E-2,1.272926569E0,-3.007806838E-1,1.309542629E0
1.346678692E1,-2.368618920E-2,9.775763750E-1,-2.870512903E-1,1.019124648E0
1.347680792E1,-5.382274278E-3,5.560650826E-1,-2.810433209E-1,6.230751906E-1
1.348682792E1,-3.820946068E-2,-1.010139100E-2,-2.683030069E-1,2.711982752E-1
1.349684792E1,-3.133457527E-2,-4.406921566E-1,-2.479281873E-1,5.066160464E-1
1.350686792E1,-1.269697677E-2,-7.525882721E-1,-2.197852284E-1,7.841274559E-1
1.351688892E1,2.237920091E-2,-8.835839033E-1,-1.874968112E-1,9.035354985E-1
1.352690892E1,8.806847036E-2,-7.562989593E-1,-1.492687464E-1,7.759029127E-1
1.353692892E1,1.447265595E-1,-5.331834555E-1,-1.081109494E-1,5.629550174E-1
1.354694892E1,1.789228767E-1,-3.916029036E-1,-7.262992114E-2,4.366249367E-1
1.355696992E1,1.488558203E-1,-2.807621062E-1,-3.889431804E-2,3.201533749E-1
1.356698992E1,1.175708622E-1,-1.810600013E-1,5.170026561E-4,2.158839943E-1
1.357700992E1,6.388012320E-2,-2.150076926E-1,2.149216644E-2,2.253239695E-1
1.358702992E1,6.654913537E-3,-3.135912716E-1,3.481569886E-2,3.155881912E-1
1.359705092E1,-4.379320890E-2,-4.587394893E-1,3.758422285E-2,4.623552076E-1
1.360707092E1,-7.729950547E-2,-6.189211607E-1,3.761911020E-2,6.248630363E-1
1.361709092E1,-1.071008295E-1,-7.941552997E-1,3.980768844E-2,8.023327737E-1
1.362711092E1,-1.372656524E-1,-9.508807659E-1,4.461176321E-2,9.617724782E-1
1.363713192E1,-1.559022367E-1,-1.089027047E0,3.557837754E-2,1.100704882E0
1.364715192E1,-1.701062024E-1,-1.201444983E0,-1.181816589E-2,1.213484997E0
1.365717192E1,-1.499307901E-1,-1.187379122E0,-8.136419952E-2,1.199570154E0
1.366719292E1,-1.533138007E-1,-1.118600011E0,-1.466646343E-1,1.138543640E0
1.367721292E1,-1.662744880E-1,-9.521964788E-1,-2.005693913E-1,9.871947226E-1
1.368723292E1,-2.174607217E-1,-6.798563004E-1,-2.373210043E-1,7.522067626E-1
1.369725292E1,-2.875759602E-1,-3.205583096E-1,-2.605947256E-1,5.033559116E-1
1.370727392E1,-3.474398255E-1,7.169497758E-2,-2.829128206E-1,4.537557341E-1
1.371729392E1,-4.098974466E-1,4.604414701E-1,-3.002534807E-1,6.856926548E-1
1.372731392E1,-4.412891865E-1,8.369306922E-1,-3.138904870E-1,9.968532326E-1
1.373733392E1,-5.483626127E-1,9.290457964E-1,-3.196825385E-1,1.125177574E0
1.374735492E1,-6.352404952E-1,9.040690660E-1,-3.201078475E-1,1.150365332E0
1.375737492E1,-7.051193118E-1,7.723466754E-1,-3.222877383E-1,1.094340905E0
1.376739492E1,-7.737918496E-1,5.655412674E-1,-3.388845623E-1,1.016579312E0
1.377741492E1,-8.430816531E-1,3.639921844E-1,-3.505681753E-1,9.829420276E-1
1.378743592E1,-9.084585309E-1,2.437613904E-1,-3.567864001E-1,1.005988595E0
1.379745592E1,-9.670118093E-1,2.086511552E-1,-3.572784066E-1,1.051805592E0
1.380747592E1,-1.036203861E0,2.722173631E-1,-3.500931859E-1,1.127114002E0
1.381749592E1,-1.073498607E0,4.410539567E-1,-3.401348293E-1,1.209388090E0
1.382751692E1,-1.112732053E0,6.408488154E-1,-3.177645504E-1,1.322812963E0
1.383753692E1,-1.150949597E0,8.105784059E-1,-3.144890666E-1,1.442437417E0
1.384755692E1,-1.173215508E0,9.142187834E-1,-3.254306614E-1,1.522542521E0
1.385757692E1,-1.216402411E0,9.120327234E-1,-3.158707619E-1,1.552808054E0
1.386759792E1,-1.242473602E0,7.811244726E-1,-3.418219388E-1,1.506896921E0
1.387761792E1,-1.242593169E0,6.202312112E-1,-3.493433297E-1,1.432049336E0
1.388763792E1,-1.245661616E0,3.951365650E-1,-3.424673080E-1,1.350958780E0
1.389765792E1,-1.246893287E0,6.267511845E-2,-3.440892994E-1,1.295016789E0
1.390767892E1,-1.246911407E0,-3.202602863E-1,-3.477322459E-1,1.333518812E0
1.391769892E1,-1.268438578E0,-6.984188557E-1,-3.478713930E-1,1.489207786E0
1.392771892E1,-1.289328694E0,-9.808571935E-1,-3.390142620E-1,1.655107243E0
1.393773892E1,-1.306895256E0,-1.151604772E0,-3.212565482E-1,1.771263541E0
1.394775992E1,-1.334720969E0,-1.255826235E0,-2.966856956E-1,1.856502626E0
1.395777992E1,-1.341785550E0,-1.293895602E0,-2.714434564E-1,1.883676151E0
1.396779992E1,-1.346405387E0,-1.338335276E0,-2.476797700E-1,1.914495768E0
1.397781992E1,-1.347855330E0,-1.376523137E0,-2.309273481E-1,1.940324039E0
1.398784092E1,-1.337535858E0,-1.381852388E0,-2.094108760E-1,1.934520899E0
1.399786092E1,-1.307859182E0,-1.261500478E0,-1.951373965E-1,1.827555115E0
1.400788092E1,-1.320078015E0,-1.099501133E0,-1.657163948E-1,1.725969476E0
1.401790192E1,-1.300313115E0,-7.722405195E-1,-1.404081732E-1,1.518843005E0
1.402792192E1,-1.285363436E0,-3.726508021E-1,-1.159283891E-1,1.343304572E0
1.403794192E1,-1.274085283E0,-1.460079756E-2,-1.038388908E-1,1.278393135E0
1.404796192E1,-1.265941262E0,2.372679263E-1,-1.028433964E-1,1.292083632E0
1.405798292E1,-1.268636107E0,3.540127277E-1,-1.126628146E-1,1.321913573E0
1.406800292E1,-1.279322028E0,3.545717299E-1,-1.336013973E-1,1.334254585E0
1.407802292E1,-1.281447768E0,2.811927497E-1,-1.495822668E-1,1.320436519E0
1.408804292E1,-1.280262709E0,1.764820665E-1,-1.686244011E-1,1.303323717E0
1.409806392E1,-1.266092300E0,9.425073117E-2,-1.802072227E-1,1.282321160E0
1.410808392E1,-1.246213078E0,6.011407077E-2,-1.840714812E-1,1.261167336E0
1.411810392E1,-1.221452475E0,5.199461430E-2,-1.662432998E-1,1.233809719E0
1.412812392E1,-1.194322586E0,7.096421905E-5,-1.482624412E-1,1.203490007E0
1.413814492E1,-1.164579272E0,-1.092340201E-1,-1.332815439E-1,1.177259921E0
1.414816492E1,-1.128955960E0,-2.204185873E-1,-1.166234687E-1,1.156169082E0
1.415818492E1,-1.101841569E0,-2.922664285E-1,-1.012560055E-1,1.144433173E0
1.416820492E1,-1.067942977E0,-2.846876085E-1,-8.067296445E-2,1.108177496E0
1.417822592E1,-1.035848260E0,-2.080485970E-1,-6.660369039E-2,1.058632083E0
1.418824592E1,-1.006947160E0,-6.321204454E-2,-6.781915575E-2,1.011206103E0
1.419826592E1,-9.827056527E-1,1.348249018E-1,-7.476444542E-2,9.947250255E-1
1.420828592E1,-9.516987205E-1,3.209449649E-1,-8.919931203E-2,1.008311778E0
1.421830692E1,-9.240184426E-1,4.023354053E-1,-1.110439003E-1,1.013910553E0
1.422832692E1,-8.794783950E-1,4.211746156E-1,-1.543484926E-1,9.872658007E-1
1.423834692E1,-8.975681067E-1,2.521443069E-1,-1.572557837E-1,9.454811680E-1
1.424836692E1,-9.435273409E-1,6.024331227E-2,-1.760078967E-1,9.616921957E-1
1.425838792E1,-9.552313685E-1,1.405246789E-3,-1.910146773E-1,9.741434951E-1
1.426840792E1,-9.598921537E-1,4.085065797E-2,-2.043123692E-1,9.822450139E-1
1.427842792E1,-9.750954509E-1,1.644499451E-1,-2.112910897E-1,1.011186851E0
1.428844792E1,-9.865009785E-1,3.311518431E-1,-2.285528928E-1,1.065402341E0
1.429846946E1,-9.964277148E-1,4.888930023E-1,-2.471851259E-1,1.137095003E0
1.430848946E1,-1.007379055E0,6.237128377E-1,-2.693780363E-1,1.215069871E0
1.431850946E1,-1.015423417E0,6.949281096E-1,-2.900433540E-1,1.264173620E0
1.432852946E1,-1.022538543E0,6.676184535E-1,-3.176925480E-1,1.261835182E0
1.433855046E1,-1.027325392E0,5.876655579E-1,-3.472080231E-1,1.233410588E0
1.434857046E1,-1.025109053E0,5.242604613E-1,-3.785645962E-1,1.212026714E0
1.435859046E1,-1.017697334E0,4.994428456E-1,-4.063722491E-1,1.204279629E0
1.436861146E1,-1.002273917E0,5.123258829E-1,-4.232993126E-1,1.202586015E0
1.437863146E1,-9.863578677E-1,5.045347214E-1,-4.383965135E-1,1.191490089E0
1.438865146E1,-9.622637033E-1,4.646405280E-1,-4.465337992E-1,1.158116872E0
1.439867146E1,-9.324986339E-1,4.262695611E-1,-4.459672868E-1,1.118099397E0
1.440869246E1,-8.967278600E-1,3.937342465E-1,-4.464439750E-1,1.076317674E0
1.441871246E1,-8.603546023E-1,3.565008640E-1,-4.381673336E-1,1.029219860E0
1.442873246E1,-8.190298080E-1,3.131139874E-1,-4.233503044E-1,9.736917766E-1
1.443875246E1,-7.788621187E-1,2.713090181E-1,-4.144657254E-1,9.230474640E-1
1.444877346E1,-7.340014577E-1,2.238813192E-1,-3.955234587E-1,8.633190554E-1
1.445879346E1,-6.883896589E-1,1.176224053E-1,-3.721255660E-1,7.913234418E-1
1.446881346E1,-6.296339035E-1,-4.655721039E-2,-3.522520065E-1,7.229715779E-1
1.447883346E1,-5.794451237E-1,-2.099860460E-1,-3.262128830E-1,6.973274954E-1
1.448885446E1,-5.230383277E-1,-3.397373855E-1,-3.051459491E-1,6.943375502E-1
1.449887446E1,-4.716595709E-1,-4.291610122E-1,-2.794051766E-1,6.962105845E-1
1.450889446E1,-4.231045544E-1,-4.734435081E-1,-2.550889254E-1,6.842781446E-1
1.451891446E1,-3.900733590E-1,-4.690448046E-1,-2.295513302E-1,6.518083056E-1
1.452893546E1,-3.614622056E-1,-4.274174571E-1,-2.060646415E-1,5.964924519E-1
1.453895546E1,-3.321551085E-1,-3.542412519E-1,-1.878563911E-1,5.206763912E-1
1.454897546E1,-3.062271178E-1,-2.710108161E-1,-1.714478582E-1,4.434143414E-1
1.455899546E1,-2.802708149E-1,-1.812824160E-1,-1.592937112E-1,3.698506867E-1
1.456901646E1,-2.505613863E-1,-7.794457674E-2,-1.516989022E-1,3.030988656E-1
1.457903646E1,-2.257587463E-1,2.338602953E-2,-1.431768388E-1,2.683533586E-1
1.458905646E1,-2.053653300E-1,1.294163316E-1,-1.354185194E-1,2.779598551E-1
1.459907646E1,-1.837772727E-1,2.147729248E-1,-1.200490296E-1,3.071046478E-1
1.460909746E1,-1.641585678E-1,2.582581043E-1,-1.102853492E-1,3.252816350E-1
1.461911746E1,-1.430100352E-1,2.545532584E-1,-9.820456058E-2,3.080476704E-1
1.462913746E1,-1.285823584E-1,2.155730873E-1,-9.195278585E-2,2.673209563E-1
1.463915746E1,-1.118441671E-1,1.519742310E-1,-8.262901008E-2,2.059923249E-1
1.464917846E1,-1.028322950E-1,7.573324442E-2,-7.590212673E-2,1.485635825E-1
1.465919846E1,-9.766650945E-2,-6.945752539E-4,-6.645762175E-2,1.181348593E-1
1.466921846E1,-9.387203306E-2,-6.214515492E-2,-5.803883076E-2,1.266589308E-1
1.467923846E1,-8.946383744E-2,-1.014344618E-1,-5.053713173E-2,1.443839670E-1
1.468925946E1,-8.610265702E-2,-1.293563694E-1,-3.553448245E-2,1.594033792E-1
1.469927946E1,-8.243621141E-2,-1.357832551E-1,-2.236513048E-2,1.604151501E-1
1.470929946E1,-7.371035963E-2,-1.175765693E-1,-7.186711300E-3,1.389572437E-1
1.471931946E1,-6.173783913E-2,-1.024055779E-1,8.304501884E-3,1.198642062E-1
1.472934046E1,-5.029210821E-2,-1.085723937E-1,2.310768329E-2,1.218656056E-1
1.473936046E1,-4.019265249E-2,-1.313384771E-1,3.337148577E-2,1.413467402E-1
1.474938046E1,-2.357213199E-2,-1.777637750E-1,3.924322501E-2,1.835637105E-1
1.475940046E1,-1.161777508E-2,-2.304379791E-1,4.798864201E-2,2.356682937E-1
1.476942146E1,5.419524387E-4,-2.901364863E-1,5.417622998E-2,2.951517208E-1
1.477944146E1,1.732783951E-2,-3.443274200E-1,6.148174405E-2,3.502022716E-1
1.478946146E1,5.178860947E-2,-3.577407002E-1,6.427566707E-2,3.671400687E-1
1.479948146E1,1.309250295E-1,-2.815852463E-1,7.254712284E-2,3.188960635E-1
1.480950246E1,2.310220748E-1,-1.670459062E-1,8.414146304E-2,2.972462273E-1
1.481952246E1,4.117246270E-1,2.952504754E-1,1.051355302E-1,5.174393602E-1
1.482954246E1,-6.813918799E-2,-6.278581619E-1,8.124084771E-2,6.367486912E-1
1.483956346E1,7.134269178E-2,-2.215218693E-1,9.960883111E-2,2.531474619E-1
1.484958346E1,5.563535914E-2,-3.070426285E-1,1.115858704E-1,3.313938373E-1
1.485960346E1,5.367400497E-2,-3.045988381E-1,1.088339090E-1,3.278813364E-1
1.486962346E1,7.064180821E-2,-3.461614549E-1,1.045379639E-1,3.684375169E-1
1.487964446E1,8.756080270E-2,-3.402993977E-1,9.711585194E-2,3.645573521E-1
1.488966446E1,9.557585418E-2,-3.343389928E-1,9.074664116E-2,3.593775993E-1
1.489968446E1,9.583231807E-2,-3.324665129E-1,8.317101002E-2,3.558584442E-1
1.490970446E1,1.030353084E-1,-2.997390330E-1,7.571134716E-2,3.258710953E-1
1.491972546E1,1.243526787E-1,-2.229791135E-1,7.554385811E-2,2.662520389E-1
1.492974546E1,1.571742743E-1,-1.240709126E-1,7.370148599E-2,2.133758489E-1
1.493976546E1,1.946637481E-1,-3.386686742E-2,7.230409980E-2,2.104015741E-1
1.494978546E1,2.257244736E-1,3.545415029E-2,6.956770271E-2,2.388476502E-1
1.495980646E1,2.603593171E-1,6.301040947E-2,7.393906265E-2,2.778925524E-1
1.496982646E1,2.917214930E-1,4.103507102E-2,7.167297602E-2,3.031869424E-1
1.497984646E1,3.282664418E-1,-1.604955830E-2,7.219494879E-2,3.364945108E-1
1.498986646E1,3.594832122E-1,-8.210287243E-2,7.095710933E-2,3.755049572E-1
1.499988746E1,3.882891536E-1,-1.426119953E-1,6.980525702E-2,4.194990130E-1
1.500990746E1,4.145974517E-1,-1.859474778E-1,7.181594521E-2,4.600272181E-1
1.501992746E1,4.415460825E-1,-2.060384452E-1,7.883553207E-2,4.935887205E-1
1.502994746E1,4.678019285E-1,-2.072613686E-1,7.837161422E-2,5.176273072E-1
1.503996846E1,4.929534495E-1,-2.013697922E-1,8.054903150E-2,5.385545869E-1
1.504998846E1,5.161897540E-1,-1.879237592E-1,8.549665660E-2,5.559468317E-1
1.506000846E1,5.351958871E-1,-1.610466987E-1,8.763520420E-2,5.657301527E-1
1.507002846E1,5.503678918E-1,-1.246284917E-1,8.905600011E-2,5.712863104E-1
1.508004946E1,5.614753962E-1,-7.432051003E-2,9.012411535E-2,5.734984872E-1
1.509006946E1,5.725243092E-1,-2.382112108E-2,9.468770772E-2,5.807902310E-1
1.510008946E1,5.772231817E-1,4.270665348E-3,9.884870797E-2,5.856414493E-1
1.511010946E1,5.810256600E-1,1.256667823E-2,1.017944291E-1,5.900091905E-1
1.512013046E1,5.864070058E-1,1.291151717E-2,1.031211317E-1,5.955450038E-1
1.513015046E1,5.865143538E-1,-3.664263990E-3,1.065840349E-1,5.961314205E-1
1.514017046E1,5.840717554E-1,-2.923905477E-2,1.098972932E-1,5.950396229E-1
1.515019046E1,5.844560266E-1,-5.752715096E-2,1.093974188E-1,5.973826373E-1
1.516021146E1,5.834265351E-1,-8.499190956E-2,1.092251316E-1,5.996167742E-1
1.517023146E1,5.803425908E-1,-1.126192734E-1,1.055747345E-1,6.005219796E-1
1.518025146E1,5.756604671E-1,-1.331330985E-1,1.067083105E-1,6.004132401E-1
1.519027146E1,5.606029630E-1,-1.529802978E-1,1.056859195E-1,5.906336997E-1
1.520029246E1,5.509380102E-1,-1.690517366E-1,1.035680324E-1,5.855232857E-1
1.521031246E1,5.358597636E-1,-1.862930357E-1,1.026582941E-1,5.765323120E-1
1.522033246E1,5.179585814E-1,-2.026173472E-1,1.056213379E-1,5.661190233E-1
1.523035246E1,4.995888770E-1,-2.260592878E-1,1.044226512E-1,5.582077908E-1
1.524037346E1,4.779733717E-1,-2.573432922E-1,1.022084430E-1,5.523863503E-1
1.525039346E1,4.626159966E-1,-2.911177576E-1,9.841636568E-2,5.553817517E-1
1.526041346E1,4.471986890E-1,-3.288194537E-1,9.116224945E-2,5.625117388E-1
1.527043446E1,4.286029041E-1,-3.582319319E-1,8.533045650E-2,5.650768560E-1
1.528045446E1,4.167357981E-1,-3.765551150E-1,8.071664721E-2,5.674307510E-1
1.529047446E1,4.038737714E-1,-3.771663010E-1,7.515890151E-2,5.576892525E-1
1.530049421E1,3.904816806E-1,-3.688249290E-1,6.978500634E-2,5.416435343E-1
1.531051421E1,3.824338913E-1,-3.634304404E-1,6.420622021E-2,5.314694770E-1
1.532053521E1,3.719870448E-1,-3.475024402E-1,5.706919730E-2,5.122393979E-1
1.533055521E1,3.740187585E-1,-3.158318698E-1,4.571614042E-2,4.916602152E-1
1.534057521E1,3.780237138E-1,-2.683590949E-1,3.542684391E-2,4.649447207E-1
1.535059621E1,3.767776191E-1,-2.152642012E-1,2.344448306E-2,4.345684001E-1
1.536061621E1,3.767685890E-1,-1.591342390E-1,8.748028427E-3,4.090902146E-1
1.537063621E1,3.735754490E-1,-9.690415859E-2,-4.768312909E-3,3.859686112E-1
1.538065621E1,3.636000752E-1,-4.154154658E-2,-1.423411630E-2,3.662421670E-1
1.539067721E1,3.550526500E-1,-8.834999055E-3,-2.326329798E-2,3.559236189E-1
1.540069721E1,3.437386155E-1,1.352336165E-2,-3.241875023E-2,3.455287144E-1
1.541071721E1,3.298448920E-1,4.233663529E-2,-3.986015543E-2,3.349311503E-1
1.542073721E1,3.130330145E-1,6.679406762E-2,-4.753741995E-2,3.235906704E-1
1.543075821E1,2.946063280E-1,8.939924836E-2,-5.566618592E-2,3.128639295E-1
1.544077821E1,2.783562541E-1,1.067594886E-1,-6.120868400E-2,3.043456844E-1
1.545079821E1,2.592968047E-1,1.187658161E-1,-7.217425108E-2,2.941925806E-1
1.546081821E1,2.413961440E-1,1.234662160E-1,-7.853314281E-2,2.822825878E-1
1.547083921E1,2.289458662E-1,1.203143597E-1,-8.737510443E-2,2.729948052E-1
1.548085921E1,2.167757899E-1,1.235336289E-1,-9.704929590E-2,2.677141505E-1
1.549087921E1,2.011467516E-1,1.451443881E-1,-1.012203321E-1,2.679038348E-1
1.550089921E1,1.796713620E-1,1.718691736E-1,-1.046424136E-1,2.697607197E-1
1.551092021E1,1.690485328E-1,1.961489469E-1,-1.067505702E-1,2.800848087E-1
1.552094021E1,1.580170989E-1,2.057738751E-1,-1.107809544E-1,2.821076232E-1
1.553096021E1,1.475671232E-1,1.967111379E-1,-1.139402688E-1,2.710234537E-1
1.554098021E1,1.385850906E-1,1.864735633E-1,-1.192368194E-1,2.611429422E-1
1.555100121E1,1.223619133E-1,1.734459102E-1,-1.253274679E-1,2.465013100E-1
1.556102121E1,1.060014293E-1,1.668058932E-1,-1.281906813E-1,2.355702863E-1
1.557104121E1,8.828528225E-2,1.656029522E-1,-1.339050233E-1,2.305410682E-1
1.558106121E1,6.604158133E-2,1.634625494E-1,-1.387714595E-1,2.243635744E-1
1.559108221E1,4.279032350E-2,1.701153964E-1,-1.401264817E-1,2.245121171E-1
1.560110221E1,2.300988138E-2,1.783732027E-1,-1.435084343E-1,2.300893843E-1
1.561112221E1,8.487397805E-3,1.788104922E-1,-1.445779651E-1,2.301043590E-1
1.562114221E1,-9.476750158E-3,1.895052642E-1,-1.494154185E-1,2.415098781E-1
1.563116321E1,-2.766134590E-2,1.951098889E-1,-1.503853500E-1,2.478886288E-1
1.564118321E1,-4.564852268E-2,1.957233250E-1,-1.543626189E-1,2.534151252E-1
1.565120321E1,-6.140751019E-2,1.896486580E-1,-1.568185836E-1,2.536327344E-1
1.566122321E1,-7.386671007E-2,1.840486377E-1,-1.571264714E-1,2.530196038E-1
1.567124421E1,-8.234381676E-2,1.789875627E-1,-1.598317027E-1,2.536990834E-1
1.568126421E1,-8.614126593E-2,1.816309541E-1,-1.593940407E-1,2.565474253E-1
1.569128421E1,-9.525273740E-2,1.944415569E-1,-1.592963040E-1,2.688046047E-1
1.570130421E1,-9.891051054E-2,1.939756125E-1,-1.602444947E-1,2.703481559E-1
1.571132521E1,-9.825298190E-2,1.945402026E-1,-1.632038057E-1,2.722774707E-1
1.572134521E1,-1.035684347E-1,1.848933548E-1,-1.561384499E-1,2.632321957E-1
1.573136521E1,-1.068768799E-1,1.658565551E-1,-1.586942822E-1,2.532092801E-1
1.574138521E1,-1.178821027E-1,1.525781900E-1,-1.579759568E-1,2.492643118E-1
1.575140621E1,-1.231556982E-1,1.319815665E-1,-1.570140272E-1,2.392485416E-1
1.576142621E1,-1.349628121E-1,1.107596681E-1,-1.568592936E-1,2.347072702E-1
1.577144621E1,-1.463949531E-1,9.765797853E-2,-1.556835175E-1,2.349594022E-1
1.578146621E1,-1.659176201E-1,9.580388665E-2,-1.535523981E-1,2.455308133E-1
1.579148721E1,-1.858811975E-1,1.028386280E-1,-1.516410559E-1,2.610030897E-1
1.580150721E1,-2.117052823E-1,1.183092669E-1,-1.507117301E-1,2.855349975E-1
1.581152721E1,-2.423105985E-1,1.346882433E-1,-1.458072513E-1,3.132333053E-1
1.582154721E1,-2.780891359E-1,1.399283856E-1,-1.413712949E-1,3.419054893E-1
1.583156821E1,-3.238448799E-1,1.485282630E-1,-1.388839036E-1,3.823936320E-1
1.584158821E1,-3.776844442E-1,1.564410180E-1,-1.338778287E-1,4.301657872E-1
1.585160821E1,-4.534654915E-1,1.540963799E-1,-1.355654746E-1,4.977495798E-1
1.586162921E1,-5.156185627E-1,1.464467943E-1,-1.315760463E-1,5.519251958E-1
1.587164921E1,-5.732610822E-1,1.169099361E-1,-1.316372901E-1,5.996870664E-1
1.588166921E1,-6.195526123E-1,7.812640071E-2,-1.271394640E-1,6.372704428E-1
1.589168921E1,-6.653859019E-1,3.821387142E-2,-1.204661280E-1,6.772819106E-1
1.590171021E1,-7.085452676E-1,5.593685433E-3,-1.119293496E-1,7.173533751E-1
1.591173021E1,-7.556456923E-1,-1.627805829E-2,-9.774455428E-2,7.621150736E-1
1.592175021E1,-8.121440411E-1,-1.982985996E-2,-9.094860405E-2,8.174612011E-1
1.593177021E1,-8.845966458E-1,-2.451808937E-2,-7.910420001E-2,8.884648766E-1
1.594179121E1,-9.342837930E-1,-2.163048089E-2,-6.577707827E-2,9.368461493E-1
1.595181121E1,-9.672723413E-1,-1.426337846E-2,-5.308258906E-2,9.688327964E-1
1.596183121E1,-9.894076586E-1,-3.375352919E-2,-4.652345553E-2,9.910758031E-1
1.597185121E1,-1.001276016E0,-4.918761551E-2,-3.735019639E-2,1.003179007E0
1.598187221E1,-1.021960258E0,-5.013931915E-2,-2.008073404E-2,1.023386514E0
1.599189221E1,-1.048689127E0,-6.218400225E-2,-9.731157683E-3,1.050576237E0
1.600191221E1,-1.070850968E0,-8.693370223E-2,-2.056174912E-3,1.074375862E0
1.601193221E1,-1.103919983E0,-1.071116775E-1,5.163921043E-3,1.109116273E0
1.602195321E1,-1.116387367E0,-8.546751738E-2,1.427141856E-2,1.119745115E0
1.603197321E1,-1.115160942E0,-2.096682042E-2,2.679759637E-2,1.115679903E0
1.604199321E1,-1.111411095E0,5.890606344E-2,3.567823768E-2,1.113542762E0
1.605201321E1,-1.110061646E0,1.249133050E-1,4.070335627E-2,1.117808997E0
1.606203421E1,-1.106632948E0,1.738859415E-1,3.150228038E-2,1.120653914E0
1.607205421E1,-1.111023664E0,2.229568064E-1,2.550856769E-2,1.133461075E0
1.608207421E1,-1.127544880E0,2.667854130E-1,2.155402116E-2,1.158877253E0
1.609209421E1,-1.139514446E0,3.174403310E-1,1.006407943E-2,1.182946669E0
1.610211521E1,-1.158050418E0,3.619573712E-1,2.635223791E-3,1.213301633E0
1.611213521E1,-1.188006520E0,3.953526318E-1,-7.603831589E-3,1.252086664E0
1.612215521E1,-1.220396638E0,4.296070039E-1,-2.912643552E-2,1.294132327E0
1.613217521E1,-1.244811773E0,5.017997026E-1,-4.529581591E-2,1.342911391E0
1.614219621E1,-1.272742510E0,6.011537313E-1,-6.010099128E-2,1.408854653E0
1.615221621E1,-1.299098969E0,6.632432342E-1,-7.215046883E-2,1.460395634E0
1.616223621E1,-1.334227324E0,6.335810423E-1,-8.257924765E-2,1.479326475E0
1.617225621E1,-1.370009065E0,5.361029506E-1,-1.002442613E-1,1.474577947E0
1.618227721E1,-1.402886391E0,4.139143527E-1,-1.123543456E-1,1.466982895E0
1.619229721E1,-1.436997175E0,2.952220738E-1,-1.197179854E-1,1.471886324E0
1.620231721E1,-1.472580194E0,1.833261997E-1,-1.207460836E-1,1.488852088E0
