"Time (s)","Gyroscope x (rad/s)","Gyroscope y (rad/s)","Gyroscope z (rad/s)","Absolute (rad/s)"
2.358904170E-2,1.427246444E-2,4.420747980E-3,8.835615590E-4,1.496752935E-2
3.362404168E-2,-2.153218165E-2,1.288435189E-3,2.637430327E-3,2.173133568E-2
4.365904169E-2,-3.202929720E-2,-1.957583427E-2,-1.243328094E-3,3.755842158E-2
5.369304167E-2,-1.863447949E-2,-2.470061183E-2,-3.361821291E-4,3.094312636E-2
6.372804168E-2,-2.026113868E-2,-8.849478327E-3,-7.593583432E-4,2.212246895E-2
7.376304167E-2,-4.276232794E-2,1.344433706E-2,-1.908762846E-3,4.486658295E-2
8.379804168E-2,-4.911023751E-2,-1.065487415E-2,-6.666766480E-3,5.069307198E-2
9.383304167E-2,-2.650883049E-2,-4.669506848E-2,-6.119842175E-3,5.404257564E-2
1.038680417E-1,-2.281689085E-2,-2.272768505E-2,-5.942209624E-3,3.274855769E-2
1.139030417E-1,-5.854154006E-2,9.281532839E-4,-6.413021125E-3,5.889906808E-2
1.239380417E-1,-1.016088575E-1,-2.907475270E-2,-5.993839353E-3,1.058566355E-1
1.339720417E-1,-9.884340316E-2,-4.083026201E-2,-1.069387514E-2,1.074778471E-1
1.440070417E-1,-5.543734133E-2,-3.623843938E-2,-1.497171074E-2,6.790195450E-2
1.540420417E-1,-3.175308928E-2,-4.983884096E-2,-2.032954618E-2,6.249367324E-2
1.640770417E-1,-4.098946601E-2,-4.400145635E-2,-2.271493897E-2,6.428244657E-2
1.741120417E-1,-5.282608792E-2,-3.517242149E-2,-2.435518056E-2,6.797697859E-2
1.841470417E-1,-5.631775782E-2,-5.396235734E-2,-2.806869149E-2,8.289437434E-2
1.941820417E-1,-5.370501056E-2,-8.372956514E-2,-2.717301808E-2,1.031176083E-1
2.042170417E-1,-5.261391401E-2,-1.011064276E-1,-3.045057133E-2,1.179744504E-1
2.142520417E-1,-6.795383245E-2,-9.731284529E-2,-3.911630437E-2,1.249703904E-1
2.242870417E-1,-9.579425305E-2,-9.235376865E-2,-3.573568538E-2,1.377780705E-1
2.343210417E-1,-1.297989786E-1,-8.453517407E-2,-3.759822622E-2,1.593976070E-1
2.443560417E-1,-1.581259668E-1,-8.743588626E-2,-3.673376516E-2,1.843860762E-1
2.543910417E-1,-1.848405898E-1,-1.027445421E-1,-3.770374134E-2,2.148116772E-1
2.644260417E-1,-1.981143206E-1,-1.302344948E-1,-4.049260542E-2,2.405201837E-1
2.744610417E-1,-2.080121040E-1,-1.478615999E-1,-3.901261464E-2,2.581744996E-1
2.844960417E-1,-2.195169479E-1,-1.489266008E-1,-4.299990088E-2,2.687300026E-1
2.945310417E-1,-2.337596118E-1,-1.472053975E-1,-4.519296065E-2,2.799203259E-1
3.045660417E-1,-2.490232587E-1,-1.567704082E-1,-4.524169490E-2,2.977185839E-1
3.146010417E-1,-2.483082414E-1,-1.644755453E-1,-4.235175624E-2,3.008369309E-1
3.246350417E-1,-2.342515439E-1,-1.552144140E-1,-4.640455544E-2,2.848134177E-1
3.346700417E-1,-2.075074017E-1,-1.316379458E-1,-5.902795494E-2,2.527294403E-1
3.447050417E-1,-1.808068156E-1,-1.129542664E-1,-4.989944026E-2,2.189514216E-1
3.547400417E-1,-1.651857346E-1,-1.019056439E-1,-5.520252138E-2,2.017880213E-1
3.647750417E-1,-1.474823654E-1,-9.545733035E-2,-4.920428246E-2,1.824396103E-1
3.748100417E-1,-1.295800656E-1,-9.529434144E-2,-5.802680179E-2,1.709944872E-1
3.848450417E-1,-1.181969196E-1,-1.242349148E-1,-5.315801129E-2,1.795288278E-1
3.948800417E-1,-1.020673737E-1,-1.392367631E-1,-6.099452078E-2,1.830982156E-1
4.049150417E-1,-8.754728734E-2,-1.381272972E-1,-6.512881815E-2,1.760268181E-1
4.149490417E-1,-8.101653308E-2,-1.411897540E-1,-7.271543145E-2,1.782856114E-1
4.249840417E-1,-7.364810258E-2,-1.511755437E-1,-6.678057462E-2,1.809357156E-1
4.350190417E-1,-6.798470765E-2,-1.685465872E-1,-5.500081554E-2,1.898814426E-1
4.450540417E-1,-6.536788493E-2,-1.809720993E-1,-6.327924877E-2,2.025540037E-1
4.550890417E-1,-6.447395682E-2,-1.628196687E-1,-6.673908979E-2,1.874066213E-1
4.651240417E-1,-6.558848917E-2,-1.328577846E-1,-6.093339622E-2,1.602058664E-1
4.751590417E-1,-6.118396670E-2,-1.291476488E-1,-5.180193111E-2,1.520066875E-1
4.851940417E-1,-5.244001001E-2,-1.462012082E-1,-5.058673024E-2,1.633516612E-1
4.952290417E-1,-2.961148694E-2,-1.443808079E-1,-6.247897074E-2,1.600821028E-1
5.052630417E-1,-1.684192102E-5,-1.362584233E-1,-7.996182144E-2,1.579881359E-1
5.152980417E-1,3.004175983E-2,-1.729905158E-1,-1.124328300E-1,2.084930866E-1
5.253330417E-1,2.584408596E-2,-2.552813888E-1,-1.227491125E-1,2.844360189E-1
5.353680417E-1,1.407048106E-2,-3.306079209E-1,-1.106126755E-1,3.489050584E-1
5.454030417E-1,9.193434380E-3,-2.912919521E-1,-8.761574328E-2,3.043222619E-1
5.554380417E-1,1.493949257E-2,-2.099880874E-1,-6.205028668E-2,2.194730584E-1
5.654730417E-1,-1.610454870E-3,-2.106589377E-1,-7.005228847E-2,2.220069925E-1
5.755080417E-1,-3.408545628E-2,-2.782815695E-1,-8.367055655E-2,2.925802664E-1
5.855430417E-1,-4.631575942E-2,-3.375387490E-1,-5.050621554E-2,3.444247878E-1
5.955780417E-1,-3.393797949E-2,-3.200253546E-1,-6.343376637E-2,3.280119766E-1
6.056120417E-1,-2.230647253E-3,-2.815876603E-1,-8.792526275E-2,2.950041323E-1
6.156470417E-1,3.755835816E-2,-2.744930387E-1,-8.186090738E-2,2.888914445E-1
6.256820417E-1,6.387970597E-2,-3.084904253E-1,-4.962387681E-2,3.189192508E-1
6.357170417E-1,5.773641169E-2,-3.273882270E-1,-1.024456322E-2,3.325980990E-1
6.457520417E-1,3.621940315E-2,-3.084667325E-1,-5.157659762E-3,3.106286717E-1
6.557870417E-1,1.389349625E-2,-2.437198162E-1,-3.726861998E-2,2.469439776E-1
6.658220417E-1,1.141089760E-2,-2.044059634E-1,-3.049753048E-2,2.069833467E-1
6.758570417E-1,3.238474950E-2,-1.997049898E-1,3.013574984E-3,2.023361969E-1
6.858920417E-1,1.015028544E-2,-1.992964596E-1,2.246423811E-2,2.008152113E-1
6.959260417E-1,-1.187732257E-2,-1.523919851E-1,3.231316060E-2,1.562322894E-1
7.059610417E-1,-2.220133319E-2,-1.028774306E-1,4.144940153E-2,1.131137384E-1
7.159960417E-1,-2.724891528E-2,-7.484993339E-2,6.254706532E-2,1.012775952E-1
7.260310417E-1,-3.062420525E-2,-1.833898388E-2,4.626929760E-2,5.843807130E-2
7.360660417E-1,-2.842373773E-2,5.327400193E-2,4.404489696E-2,7.473942130E-2
7.461010417E-1,-4.701872543E-2,8.097700030E-2,3.303379193E-2,9.929383932E-2
7.561360417E-1,-7.007603347E-2,3.197616339E-2,3.817737103E-2,8.596881499E-2
7.661710417E-1,-6.449644268E-2,-1.533142850E-2,6.168509275E-2,9.055326877E-2
7.762060417E-1,-4.312407598E-2,-6.076769438E-3,7.929858565E-2,9.047031968E-2
7.862402083E-1,-4.278292507E-2,3.456573188E-2,8.512611687E-2,1.013490221E-1
7.962752084E-1,-7.051027566E-2,8.596652001E-2,6.558535993E-2,1.290867188E-1
8.063102083E-1,-7.525869459E-2,1.205644459E-1,4.480418190E-2,1.490203725E-1
8.163452084E-1,-2.872043662E-2,8.493877202E-2,5.281264707E-2,1.040607234E-1
8.263802083E-1,2.811658196E-3,2.594176121E-2,6.253824383E-2,6.776365056E-2
8.364152084E-1,1.132671605E-3,5.794554204E-2,7.081772387E-2,9.151021146E-2
8.464502083E-1,-1.235650573E-2,1.300905645E-1,5.957332999E-2,1.436148316E-1
8.564852084E-1,-2.293207496E-2,1.255008876E-1,5.085957423E-2,1.373428162E-1
8.665202083E-1,-1.603502035E-2,8.510926366E-2,3.613282740E-2,9.384183424E-2
8.765542083E-1,-2.514104545E-2,5.433366820E-2,3.703886643E-2,7.039955464E-2
8.865892084E-1,-3.355370462E-2,3.684468940E-2,2.815163136E-2,5.723544862E-2
8.966242083E-1,-1.546257176E-2,2.594184875E-2,2.237438411E-2,3.758568486E-2
9.066592084E-1,-3.759044223E-3,-3.312974470E-3,2.797421254E-2,2.841940852E-2
9.166942083E-1,1.226109453E-2,4.114928842E-2,1.496030390E-2,4.546877026E-2
9.267292084E-1,1.244395971E-3,9.232432395E-2,-1.025929954E-2,9.290092864E-2
9.367642083E-1,-6.569969654E-2,2.383560874E-3,-3.941978794E-3,6.586099517E-2
9.467992084E-1,-5.133007467E-2,1.058904454E-3,-1.360577065E-3,5.135902077E-2
9.568342083E-1,-9.335797280E-3,9.061534889E-3,-1.691698097E-3,1.311984633E-2
9.668692084E-1,-4.970452562E-2,-6.460683048E-2,-8.322170004E-3,8.193803101E-2
9.769032084E-1,-2.944546752E-2,3.624831140E-2,-2.008051984E-2,5.083505595E-2
9.869382083E-1,2.729690820E-2,5.111833662E-2,-2.625532448E-2,6.362033951E-2
9.969732084E-1,3.358809277E-2,-1.047157273E-1,-3.424773738E-2,1.151800809E-1
1.007008208E0,3.821932897E-2,-1.315745115E-1,-3.714445606E-2,1.419587257E-1
1.017043208E0,4.869559407E-2,-6.941153109E-2,-4.945833236E-2,9.815980934E-2
1.027078208E0,6.593769044E-2,-8.689971268E-2,-4.518475756E-2,1.180720179E-1
1.037113208E0,8.478699625E-2,-1.247218773E-1,-3.204916045E-2,1.541801871E-1
1.047148208E0,6.810655445E-2,-8.671377599E-2,-2.807652205E-2,1.137808103E-1
1.057182208E0,3.426428139E-2,-5.183932930E-2,-2.502473444E-2,6.698950944E-2
1.067217208E0,2.264251187E-2,-6.243018806E-2,-2.142360806E-2,6.977952929E-2
1.077252208E0,4.569901526E-2,-6.654210389E-2,-2.067866921E-2,8.332982027E-2
1.087287208E0,6.804959476E-2,-5.905462429E-2,-2.648968622E-2,9.391431985E-2
1.097322208E0,7.682894170E-2,-7.916557789E-2,-2.252143435E-2,1.125925842E-1
1.107357208E0,7.390079647E-2,-7.957863808E-2,-2.363942936E-2,1.111436457E-1
1.117392208E0,6.416389346E-2,-7.174423337E-2,-2.225598879E-2,9.879053236E-2
1.127427208E0,4.497848079E-2,-6.998708099E-2,-1.522604190E-2,8.457592797E-2
1.137462208E0,2.982510440E-2,-6.140017509E-2,-2.161766030E-2,7.160196639E-2
1.147496208E0,2.737686038E-2,-7.340624183E-2,-2.674131654E-2,8.278325214E-2
1.157531208E0,3.290221468E-2,-6.024662405E-2,-3.305737674E-2,7.619056108E-2
1.167566208E0,3.957476467E-2,-2.579783462E-2,-3.367203102E-2,5.801289462E-2
1.177601208E0,3.531088307E-2,-1.111209020E-2,-2.867344394E-2,4.682417538E-2
1.187636208E0,3.380220011E-2,-5.446670111E-4,-2.775625139E-2,4.374122639E-2
1.197671208E0,3.032222763E-2,3.659475967E-2,-2.512948588E-2,5.375969665E-2
1.207706208E0,5.351363681E-3,8.223734796E-2,-2.791914716E-2,8.701205245E-2
1.217741208E0,-2.299747989E-2,6.251209974E-2,-3.284934908E-2,7.426793676E-2
1.227776208E0,-3.344506398E-2,2.307467535E-2,-3.016967699E-2,5.060852059E-2
1.237811208E0,-2.598203532E-2,7.541694492E-2,-2.155667730E-2,8.262851854E-2
1.247845208E0,-2.246426605E-2,1.416707933E-1,-1.542102173E-2,1.442673381E-1
1.257880208E0,-2.354104072E-2,1.655864716E-1,-2.126749419E-2,1.685982398E-1
1.267915208E0,-2.472534776E-2,1.702720374E-1,-1.384100318E-2,1.726136811E-1
1.277950208E0,-5.210424215E-2,1.809475720E-1,2.606146969E-3,1.883179966E-1
1.287985208E0,-4.390916228E-2,3.092736006E-1,4.635475576E-3,3.124094464E-1
1.298020208E0,-5.409978703E-2,3.652686179E-1,2.796943486E-2,3.703110037E-1
1.308055208E0,-6.303628534E-2,4.327706993E-1,3.924046457E-2,4.390943697E-1
1.318090208E0,-3.626205772E-2,5.632941127E-1,3.746784851E-2,5.657022484E-1
1.328125208E0,2.501674369E-2,6.465114951E-1,3.091913834E-2,6.477336983E-1
1.338159208E0,4.937706143E-2,6.592089534E-1,2.416916005E-2,6.614973067E-1
1.348194208E0,1.118946169E-2,6.198325753E-1,3.443191946E-2,6.208890260E-1
1.358229208E0,-4.328578711E-2,4.870311618E-1,4.015753418E-2,4.905972273E-1
1.368264208E0,-4.912476987E-2,1.515916437E-1,4.567427188E-2,1.657691424E-1
1.378299208E0,1.346762199E-2,-1.734771729E-1,3.924734145E-2,1.783705698E-1
1.388334208E0,4.019803554E-2,-1.596862525E-1,2.156474814E-2,1.660741390E-1
1.398369208E0,-2.549792081E-2,-4.833319411E-2,1.027841493E-2,5.560474289E-2
1.408404208E0,-7.618772984E-2,-5.888889730E-2,6.727621891E-3,9.652840669E-2
1.418439208E0,-5.647518486E-2,-6.960052997E-2,3.070195671E-3,8.968336734E-2
1.428473208E0,-5.598969012E-2,4.152367413E-1,1.644265950E-1,4.501027681E-1
1.438508208E0,-1.628581136E-1,1.696797132E0,4.930112958E-1,1.774458625E0
1.448543208E0,-4.033610225E-1,1.723502040E0,7.583489418E-1,1.925682350E0
1.458578208E0,-1.037550569E0,-5.456467718E-2,2.913820744E-1,1.079069970E0
1.468613208E0,-1.358362675E0,2.033536881E-1,3.452666104E-1,1.416231235E0
1.478648208E0,-1.395006895E0,3.183850348E-1,4.726022780E-1,1.506906162E0
1.488683208E0,-1.376309037E0,1.518935114E-1,3.556383550E-1,1.429607234E0
1.498718208E0,-1.285377622E0,1.992811412E-1,2.105218172E-1,1.317660062E0
1.508753208E0,-1.027804971E0,2.824521661E-1,4.836939275E-2,1.067006037E0
1.518787208E0,-8.167647123E-1,4.399621785E-1,-1.669365317E-1,9.426235300E-1
1.528822208E0,-6.741247773E-1,5.618276596E-1,-5.201438665E-1,1.020119687E0
1.538857208E0,-5.480601788E-1,7.040893435E-1,-9.663890004E-1,1.315302043E0
1.548892208E0,-4.147570133E-1,1.011513233E0,-1.501144767E0,1.857045506E0
1.558927208E0,-4.044529200E-1,1.586001992E0,-1.872136712E0,2.486740910E0
1.568962208E0,-4.231858552E-1,2.086898565E0,-1.810393214E0,2.794951785E0
1.578997208E0,-4.005136192E-1,2.130583763E0,-1.296044827E0,2.525773253E0
1.589032208E0,-5.213532448E-1,1.403997183E0,-7.469327450E-1,1.673596672E0
1.599067208E0,-6.663262248E-1,1.220864534E0,-8.741790652E-1,1.642768970E0
1.609101208E0,-7.179542780E-1,1.743586659E0,-1.345674515E0,2.316547579E0
1.619136208E0,-5.295405984E-1,2.149393082E0,-1.681786418E0,2.780055651E0
1.629171208E0,-6.343600899E-2,2.350654602E0,-1.787474513E0,2.953754614E0
1.639206208E0,5.115740895E-1,2.328642130E0,-1.782945991E0,2.977109105E0
1.649241208E0,1.104628444E0,2.381536484E0,-1.841358900E0,3.206637276E0
1.659276208E0,1.634133935E0,2.537141323E0,-2.029056311E0,3.636557345E0
1.669311208E0,1.942147970E0,2.702494621E0,-2.240802526E0,4.012058310E0
1.679346208E0,2.058222771E0,2.775579929E0,-2.359446526E0,4.184150192E0
1.689381208E0,2.017579794E0,2.775289774E0,-2.347270966E0,4.157227747E0
1.699416208E0,1.869159818E0,2.731746912E0,-2.281355143E0,4.020047376E0
1.709450208E0,1.705856681E0,2.772119522E0,-2.182123899E0,3.918706212E0
1.719485208E0,1.559317231E0,2.706127167E0,-2.050623178E0,3.736261486E0
1.729520208E0,1.412828207E0,2.430536747E0,-1.813784361E0,3.345654813E0
1.739555208E0,1.301496983E0,2.077734947E0,-1.449896216E0,2.848346177E0
1.749590208E0,1.229998231E0,1.718765020E0,-1.031008124E0,2.351600858E0
1.759625208E0,1.179485202E0,1.387581825E0,-6.630510688E-1,1.938093234E0
1.769660208E0,1.152069569E0,1.110590219E0,-3.760302067E-1,1.643798541E0
1.779695208E0,1.156870008E0,9.209614396E-1,-2.499250621E-1,1.499660203E0
1.789730667E0,1.156437278E0,8.508636355E-1,-3.039025664E-1,1.467539735E0
1.799764667E0,1.143948674E0,9.145286083E-1,-4.711872935E-1,1.538505317E0
1.809799667E0,1.133037925E0,1.029341578E0,-7.247332931E-1,1.693681602E0
1.819834667E0,1.163622975E0,1.139535189E0,-1.021608949E0,1.922561759E0
1.829869667E0,1.232784152E0,1.292874455E0,-1.298843026E0,2.208681582E0
1.839904667E0,1.325196743E0,1.332331657E0,-1.544445276E0,2.432399076E0
1.849939667E0,1.442312479E0,1.293222308E0,-1.691844821E0,2.571969697E0
1.859974667E0,1.579072714E0,1.198370218E0,-1.668360353E0,2.590943473E0
1.870009667E0,1.732487559E0,9.388348460E-1,-1.443386674E0,2.442598842E0
1.880044667E0,1.838655353E0,6.615703106E-1,-1.042864323E0,2.214925456E0
1.890078667E0,2.020480633E0,5.916463733E-1,-6.348839998E-1,2.198969102E0
1.900113667E0,2.204385042E0,4.267549813E-1,-3.363316655E-1,2.270363895E0
1.910148667E0,2.303875685E0,3.713191748E-1,-1.662219912E-1,2.339519363E0
1.920183667E0,2.299553871E0,4.397398531E-1,-1.129275784E-1,2.343943639E0
1.930218667E0,2.170402527E0,3.060417175E-1,-1.514906883E-1,2.197102203E0
1.940253667E0,1.993094802E0,3.043933958E-2,-1.859369427E-1,2.001980517E0
1.950288667E0,1.878085613E0,-1.110520139E-1,-1.410482973E-1,1.886645898E0
1.960323667E0,1.835517049E0,-2.257669419E-1,-2.608465590E-2,1.849533443E0
1.970358667E0,1.823999405E0,-4.056358039E-1,1.379386336E-1,1.873643857E0
1.980392667E0,1.810909867E0,-5.409022570E-1,3.505468369E-1,1.922200011E0
1.990427667E0,1.717070460E0,-5.817974806E-1,5.369480848E-1,1.890802084E0
2.000462667E0,1.537379265E0,-6.978902817E-1,6.013492942E-1,1.792263045E0
2.010497667E0,1.337394714E0,-7.733085752E-1,5.682576895E-1,1.646070344E0
2.020532667E0,1.090993881E0,-7.537335157E-1,4.917506874E-1,1.414284483E0
2.030567667E0,7.818882465E-1,-7.653707266E-1,3.945109546E-1,1.163090913E0
2.040602667E0,4.672395885E-1,-7.776872516E-1,2.845311165E-1,9.508250368E-1
2.050637667E0,1.929784715E-1,-9.057221413E-1,1.723222584E-1,9.419491750E-1
2.060672667E0,-2.449095994E-1,-6.790114641E-1,1.459498256E-1,7.364364412E-1
2.070706667E0,-1.796062291E-1,-9.923549891E-1,-2.005420774E-1,1.028223685E0
2.080741667E0,-3.902675807E-1,-1.645472407E0,-5.024505854E-1,1.764183896E0
2.090776667E0,-1.232912838E-1,-2.012882948E0,-7.567539811E-1,2.153967291E0
2.100811667E0,1.366739441E-2,-1.948593140E0,-8.266548514E-1,2.116733395E0
2.110846667E0,7.148914784E-2,-1.830771804E0,-5.729027390E-1,1.919649355E0
2.120881667E0,1.288809776E-1,-1.724251032E0,-2.355219871E-1,1.745027946E0
2.130916667E0,1.682044268E-1,-1.649812698E0,8.306909353E-3,1.658385864E0
2.140951667E0,9.247131646E-2,-1.562846422E0,1.706995517E-1,1.574858159E0
2.150986667E0,-6.146663055E-2,-1.496774316E0,2.987844646E-1,1.527541703E0
2.161020667E0,-2.528336346E-1,-1.520573854E0,4.053982198E-1,1.593868693E0
2.171055667E0,-4.619892538E-1,-1.780720711E0,4.768479168E-1,1.900469483E0
2.181090667E0,-5.888170600E-1,-2.173971415E0,4.277479351E-1,2.292558732E0
2.191125667E0,-6.469836831E-1,-2.391409159E0,2.174154967E-1,2.486904733E0
2.201160667E0,-6.416708827E-1,-2.453691721E0,-2.059194297E-1,2.544552494E0
2.211195667E0,-6.760584116E-1,-2.237144709E0,-7.683205009E-1,2.460119472E0
2.221230667E0,-8.358071446E-1,-1.752220988E0,-1.297177196E0,2.334849171E0
2.231265667E0,-1.115601420E0,-1.338569045E0,-1.594240665E0,2.361765635E0
2.241300667E0,-1.381399751E0,-8.328571916E-1,-1.503125668E0,2.204836308E0
2.251334667E0,-1.471201181E0,-1.834219396E-1,-1.051879048E0,1.817835542E0
2.261369667E0,-1.212878346E0,5.362311602E-1,-4.387659431E-1,1.396829729E0
2.271404667E0,-3.766097426E-1,8.349627256E-1,4.156125337E-2,9.169105677E-1
2.281439667E0,5.526561141E-1,7.270877361E-1,2.655696869E-1,9.511112527E-1
2.291474667E0,1.087987185E0,8.499156833E-1,5.149262547E-1,1.473506644E0
2.301509667E0,1.385736346E0,1.117925882E0,7.055502534E-1,1.915156563E0
2.311544667E0,1.534536481E0,9.945588112E-1,7.660742998E-1,1.982629384E0
2.321579667E0,1.472630858E0,6.415445209E-1,7.385458946E-1,1.767956746E0
2.331614667E0,1.248980403E0,4.884193838E-1,6.263826489E-1,1.480155655E0
2.341648667E0,8.662843108E-1,5.319176316E-1,4.092591107E-1,1.095845744E0
2.351683667E0,4.236914814E-1,7.423893809E-1,1.480456144E-1,8.675102122E-1
2.361718667E0,-1.566948928E-2,1.035436273E0,-1.320740730E-1,1.043943183E0
2.371753667E0,-5.005621910E-1,1.356203914E0,-3.339118659E-1,1.483694273E0
2.381788667E0,-9.876682758E-1,1.405016541E0,-6.050314307E-1,1.820885262E0
2.391823667E0,-1.486291289E0,1.252153754E0,-8.484118581E-1,2.120554999E0
2.401858667E0,-1.915766478E0,1.185764551E0,-9.248917699E-1,2.435492466E0
2.411893667E0,-2.295235157E0,9.001494050E-1,-9.849143028E-1,2.654887862E0
2.421928667E0,-2.650595427E0,3.952852190E-1,-1.050217986E0,2.878344027E0
2.431962667E0,-2.882884502E0,1.663858071E-2,-1.076042414E0,3.077201191E0
2.441997667E0,-3.111104488E0,-3.898045719E-1,-1.107952833E0,3.325429028E0
2.452032667E0,-3.287251711E0,-7.212600112E-1,-1.159820318E0,3.559694226E0
2.462067667E0,-3.345600128E0,-9.369317889E-1,-1.263450623E0,3.696916130E0
2.472102667E0,-3.270777702E0,-8.813058138E-1,-1.148045778E0,3.576687829E0
2.482137667E0,-2.899020195E0,-8.818209171E-1,-1.121432185E0,3.231027138E0
2.492172667E0,-2.230718613E0,-1.154414892E0,-1.074208975E0,2.731795050E0
2.502207667E0,-1.437265158E0,-1.644972682E0,-8.684608340E-1,2.350721268E0
2.512242667E0,-7.692812681E-1,-1.986639977E0,-5.270060301E-1,2.194599604E0
2.522276667E0,-2.331246883E-1,-2.086148262E0,-1.950566024E-1,2.108176646E0
2.532311667E0,3.087870479E-1,-2.053259611E0,6.128463149E-2,2.077253061E0
2.542346667E0,7.288317084E-1,-2.101080179E0,2.330667824E-1,2.236079986E0
2.552381667E0,1.006657720E0,-2.117854595E0,1.205197200E-1,2.348018921E0
2.562416667E0,1.142211318E0,-1.901352048E0,-3.594702575E-3,2.218062043E0
2.572451667E0,1.198176026E0,-1.394176960E0,1.901420206E-2,1.838400589E0
2.582486667E0,1.178377151E0,-9.695545435E-1,1.375952512E-1,1.532168782E0
2.592521667E0,1.070846438E0,-6.294430494E-1,2.282913327E-1,1.262944013E0
2.602556667E0,9.291641116E-1,-4.720067680E-1,2.064002901E-1,1.062420545E0
2.612590667E0,7.065669894E-1,-4.951152802E-1,1.182448566E-1,8.708374689E-1
2.622625667E0,4.598029554E-1,-5.979878902E-1,-8.819768205E-3,7.543779311E-1
2.632660667E0,2.505341768E-1,-7.439392209E-1,-1.121562794E-1,7.929640403E-1
2.642695667E0,7.299252599E-2,-1.045844913E0,-1.688094288E-1,1.061892703E0
2.652730667E0,-4.268187657E-2,-1.457004666E0,-1.534131616E-1,1.465680708E0
2.662765667E0,-1.460147500E-1,-1.737092018E0,-1.220244914E-1,1.747483609E0
2.672800667E0,-2.614992857E-1,-2.069902182E0,-6.113371626E-2,2.087250404E0
2.682835667E0,-3.383474648E-1,-2.475160360E0,-2.400729991E-2,2.498294251E0
2.692870667E0,-3.464847505E-1,-2.755998611E0,-7.285046577E-2,2.778648452E0
2.702904667E0,-3.389232457E-1,-2.753385544E0,-1.716517955E-1,2.779472119E0
2.712939667E0,-2.995044887E-1,-2.549658298E0,-2.789566815E-1,2.582300759E0
2.722974667E0,-2.423930168E-1,-2.272547245E0,-3.558095396E-1,2.312969041E0
2.733009667E0,-1.459453106E-1,-1.966935515E0,-4.058418274E-1,2.013664059E0
2.743044667E0,-5.046879500E-2,-1.570375443E0,-3.529604375E-1,1.610343814E0
2.753079667E0,1.362044271E-2,-9.581215978E-1,-2.284046710E-1,9.850640620E-1
2.763114667E0,5.261546373E-2,-4.363099933E-1,-1.292286515E-1,4.580773315E-1
2.773149667E0,5.339150876E-2,-9.962758422E-2,-9.011240304E-2,1.445564040E-1
2.783183667E0,2.651197091E-2,2.926045358E-1,-6.245606765E-2,3.003682063E-1
2.793217917E0,8.731909096E-3,5.471798182E-1,-1.191566139E-2,5.473791945E-1
2.803252917E0,-2.471521869E-2,6.470173597E-1,-2.320843935E-2,6.479050374E-1
2.813287917E0,-5.637088418E-2,6.718987226E-1,-7.012721151E-2,6.778963017E-1
2.823322917E0,-9.981010854E-2,6.206432581E-1,-4.048275203E-2,6.299198082E-1
2.833357917E0,-1.724347770E-1,5.414469838E-1,7.253621519E-2,5.728525911E-1
2.843392917E0,-2.724536657E-1,4.377629459E-1,1.856947094E-1,5.480418979E-1
2.853427917E0,-3.859986067E-1,3.462561965E-1,2.506236434E-1,5.759344482E-1
2.863462917E0,-4.687953889E-1,2.723467648E-1,2.574287951E-1,6.001761921E-1
2.873496917E0,-4.795723855E-1,2.161758691E-1,2.293604165E-1,5.738709611E-1
2.883531917E0,-4.034102559E-1,1.463134438E-1,1.501963437E-1,4.546497554E-1
2.893566917E0,-2.681304514E-1,1.234579235E-1,6.108591333E-2,3.014420121E-1
2.903601917E0,-8.600218594E-2,1.626822501E-1,-1.127212541E-3,1.840194585E-1
2.913636917E0,3.786543012E-2,2.345098257E-1,-4.878661036E-2,2.425052216E-1
2.923671917E0,1.243041754E-1,3.246387839E-1,-1.641871780E-1,3.844467421E-1
2.933706917E0,1.994561851E-1,4.566732347E-1,4.195970949E-3,4.983480904E-1
2.943741917E0,-2.185329348E-1,-5.413338542E-2,-9.662605077E-2,2.449972667E-1
2.953776917E0,-5.082384944E-1,-4.622846544E-1,-1.784777790E-1,7.098364505E-1
2.963810917E0,-4.187853038E-1,-4.195326567E-1,-4.074425623E-2,5.941791608E-1
2.973845917E0,-3.464922011E-1,-4.517534375E-1,5.506988615E-2,5.719883793E-1
2.983880917E0,-1.979653835E-1,-5.375958085E-1,1.990212202E-1,6.064725818E-1
2.993915917E0,-4.021276534E-2,-5.693920851E-1,2.870618403E-1,6.389279405E-1
3.003950917E0,8.691091090E-2,-5.226315260E-1,3.270084262E-1,6.226007783E-1
3.013985917E0,1.769137830E-1,-4.980287254E-1,3.728715479E-1,6.468108604E-1
3.024020917E0,2.944966257E-1,-3.726745546E-1,3.628138900E-1,5.977026894E-1
3.034055917E0,4.053517878E-1,-1.674971730E-1,2.594630122E-1,5.095943775E-1
3.044090917E0,4.755123258E-1,2.121335268E-2,9.614886343E-2,4.855991992E-1
3.054124917E0,4.913586676E-1,1.659351140E-1,-9.328205138E-2,5.269433968E-1
3.064159917E0,4.333268404E-1,1.972219199E-1,-2.826065123E-1,5.536561000E-1
3.074194917E0,2.833069861E-1,1.345558763E-1,-4.377311170E-1,5.384948124E-1
3.084229917E0,8.615803719E-2,9.649589658E-2,-4.907274246E-1,5.074919415E-1
3.094264917E0,-1.219925061E-1,2.681082487E-2,-4.638817012E-1,4.804031896E-1
3.104299917E0,-3.313549757E-1,-1.275691688E-1,-3.855773509E-1,5.241563758E-1
3.114334917E0,-4.784128666E-1,-2.524341345E-1,-2.931512892E-1,6.152556717E-1
3.124369917E0,-5.170634389E-1,-3.306278884E-1,-2.052060366E-1,6.471312988E-1
3.134404917E0,-4.957693219E-1,-4.222685993E-1,-1.395588517E-1,6.660140115E-1
3.144438917E0,-4.594411254E-1,-4.501615465E-1,-2.168156207E-2,6.435850027E-1
3.154473917E0,-4.154355824E-1,-3.354314864E-1,1.552942693E-1,5.560731204E-1
3.164508917E0,-3.234483898E-1,-2.882147133E-1,3.857453465E-1,5.800741799E-1
3.174543917E0,-2.101332992E-1,-3.096286654E-1,5.200277567E-1,6.406674501E-1
3.184578917E0,-1.119699255E-1,-3.223180473E-1,4.978900254E-1,6.035898153E-1
3.194613917E0,-4.750492051E-2,-3.561750948E-1,3.768493533E-1,5.207041874E-1
3.204648917E0,3.784476221E-2,-3.373678327E-1,2.140366286E-1,4.013240074E-1
3.214683917E0,1.456215680E-1,-2.145622969E-1,-1.078879926E-3,2.593140649E-1
3.224717917E0,2.659002244E-1,-6.896648556E-2,-2.276986539E-1,3.567996391E-1
3.234752917E0,3.803040087E-1,8.557968587E-2,-3.908178210E-1,5.519905714E-1
3.244787917E0,4.691730440E-1,2.295330316E-1,-4.458182752E-1,6.867042247E-1
3.254822917E0,5.206740499E-1,3.524065018E-1,-4.101955593E-1,7.507011426E-1
3.264857917E0,5.612644553E-1,4.516505003E-1,-3.217096329E-1,7.889886255E-1
3.274892917E0,5.779712796E-1,4.729754925E-1,-2.320673764E-1,7.820561896E-1
3.284927917E0,5.194250941E-1,4.284049571E-1,-1.785622090E-1,6.965756945E-1
3.294962917E0,4.021216333E-1,4.074338675E-1,-1.997473985E-1,6.063028843E-1
3.304997917E0,2.035679370E-1,4.448304176E-1,-2.442824394E-1,5.467978745E-1
3.315031917E0,-8.407981694E-2,5.148034096E-1,-2.495919913E-1,5.782630269E-1
3.325066917E0,-4.005218148E-1,5.044475198E-1,-2.007034719E-1,6.746605873E-1
3.335101917E0,-6.868305802E-1,5.296822786E-1,-1.255767643E-1,8.763955077E-1
3.345136917E0,-9.619670510E-1,5.387309790E-1,-6.020589173E-2,1.104190393E0
3.355171917E0,-1.182438612E0,5.004030466E-1,-5.796644092E-2,1.285272107E0
3.365206917E0,-1.313693285E0,3.732981682E-1,-1.349797398E-1,1.372356040E0
3.375241917E0,-1.423985362E0,1.666017026E-1,-1.957810372E-1,1.447004027E0
3.385276917E0,-1.447206736E0,-6.038336828E-2,-2.468530834E-1,1.469350173E0
3.395311917E0,-1.469180822E0,-2.655354440E-1,-2.446040362E-1,1.512888791E0
3.405345917E0,-1.517614007E0,-4.094164073E-1,-1.367111355E-1,1.577803538E0
3.415380917E0,-1.550796390E0,-4.082219899E-1,-9.379283525E-3,1.603652894E0
3.425415917E0,-1.561601043E0,-3.618761003E-1,9.892537445E-2,1.606031867E0
3.435450917E0,-1.519758701E0,-2.882679105E-1,1.931250989E-1,1.558865678E0
3.445485917E0,-1.400587082E0,-1.218780279E-1,2.106980234E-1,1.421580840E0
3.455520917E0,-1.193520188E0,1.206991822E-2,1.995697469E-1,1.210150489E0
3.465555917E0,-9.695042968E-1,6.811849773E-2,1.885149777E-1,9.900083879E-1
3.475590917E0,-7.079704404E-1,-1.278997362E-1,6.995423883E-2,7.228236870E-1
3.485625917E0,-4.865054488E-1,-2.188731432E-1,-7.467097789E-2,5.386731472E-1
3.495659917E0,-3.209359050E-1,-2.787663341E-1,-2.020574212E-1,4.706779425E-1
3.505694917E0,-2.050360292E-1,-4.317291379E-1,-3.486838639E-1,5.916166484E-1
3.515729917E0,-8.947188407E-2,-5.535594225E-1,-5.078501105E-1,7.565348551E-1
3.525764917E0,-1.904542930E-2,-5.777544379E-1,-5.938791037E-1,8.287673429E-1
3.535799917E0,1.790087111E-2,-5.358392000E-1,-5.844030380E-1,7.930769195E-1
3.545834917E0,-6.709828973E-3,-4.263529778E-1,-5.286924839E-1,6.792183934E-1
3.555869917E0,-1.092228889E-1,-2.460412681E-1,-5.207186937E-1,5.861858946E-1
3.565904917E0,-2.346752137E-1,-1.542342752E-1,-5.218641758E-1,5.926237302E-1
3.575939917E0,-3.375509977E-1,-9.588494897E-2,-4.826643169E-1,5.967406826E-1
3.585973917E0,-3.798891306E-1,-2.138354816E-2,-4.756000042E-1,6.090717295E-1
3.596008917E0,-3.727875352E-1,-1.976993866E-2,-5.267215371E-1,6.455981525E-1
3.606043917E0,-3.143978417E-1,-1.377287507E-1,-6.045689583E-1,6.952113614E-1
3.616078917E0,-2.373379767E-1,-2.781948149E-1,-6.668831706E-1,7.605621825E-1
3.626113917E0,-1.669159085E-1,-2.534759939E-1,-6.902386546E-1,7.540161804E-1
3.636148917E0,-1.152481884E-1,-1.170872599E-1,-6.703421474E-1,6.901812558E-1
3.646183917E0,-6.424851716E-2,-1.480160002E-2,-6.258919239E-1,6.293549553E-1
3.656218917E0,2.332714200E-2,2.448535152E-2,-5.997971892E-1,6.007498283E-1
3.666253917E0,1.274805516E-1,-2.195849083E-2,-5.777804852E-1,5.920842469E-1
3.676287917E0,1.865792871E-1,9.159975499E-2,-4.957245290E-1,5.375361887E-1
3.686322917E0,2.498290837E-1,1.295647770E-1,-4.153773785E-1,5.017369520E-1
3.696357917E0,3.402572274E-1,8.572008461E-2,-3.294875026E-1,4.813366058E-1
3.706392917E0,3.765250742E-1,1.012663767E-1,-1.970226169E-1,4.368568669E-1
3.716427917E0,3.762334585E-1,1.057053283E-1,-4.008172825E-2,3.928508326E-1
3.726462917E0,3.561984003E-1,1.558344662E-1,9.642890096E-2,4.005748546E-1
3.736497917E0,2.943110466E-1,2.254995555E-1,2.025175244E-1,4.224717616E-1
3.746532917E0,2.038526833E-1,3.230550587E-1,3.108727038E-1,4.925061679E-1
3.756566917E0,9.514112025E-2,4.600757658E-1,3.852630556E-1,6.075764685E-1
3.766601917E0,6.871212274E-2,3.709037304E-1,3.979247212E-1,5.483019395E-1
3.776636917E0,1.255951077E-1,9.706155956E-2,3.546326458E-1,3.885349288E-1
3.786672792E0,1.309892237E-1,-1.599012502E-2,2.467509061E-1,2.798211402E-1
3.796707792E0,4.941153154E-2,-4.220550880E-3,8.715032786E-2,1.002720906E-1
3.806742792E0,-1.196004525E-1,4.133741371E-3,-1.021940634E-1,1.573689380E-1
3.816777792E0,-3.120367527E-1,-7.280125469E-2,-2.786311507E-1,4.246201548E-1
3.826812792E0,-4.401768744E-1,-2.536723018E-1,-3.818248808E-1,6.355277784E-1
3.836847792E0,-5.271698236E-1,-4.128960371E-1,-4.006020427E-1,7.803032468E-1
3.846881792E0,-6.255609989E-1,-4.905693829E-1,-3.747344315E-1,8.788690329E-1
3.856916792E0,-7.690113783E-1,-4.690291882E-1,-3.240140080E-1,9.572627417E-1
3.866951792E0,-9.457786083E-1,-2.510437071E-1,-3.355197012E-1,1.034453280E0
3.876986792E0,-1.060623646E0,3.153074905E-2,-2.625893056E-1,1.093101024E0
3.887021792E0,-1.202888370E0,-7.490736991E-2,-1.706581563E-1,1.217241040E0
3.897056792E0,-1.295583963E0,-2.416715771E-1,-6.863671541E-2,1.319717377E0
3.907091792E0,-1.296045303E0,-2.717959285E-1,-1.734236442E-2,1.324351620E0
3.917126792E0,-1.174133182E0,-1.196205094E-1,-1.372579299E-2,1.180290723E0
3.927161792E0,-9.971832037E-1,-2.689687349E-2,-1.703384891E-2,9.976913027E-1
3.937195792E0,-8.559201360E-1,-1.100431532E-1,-3.577877581E-2,8.637064869E-1
3.947230792E0,-7.266560197E-1,-1.529897004E-1,-2.227787301E-2,7.429206707E-1
3.957265792E0,-6.463329792E-1,-1.297871768E-1,2.195084095E-2,6.596005387E-1
3.967300792E0,-5.364447832E-1,-1.423105877E-2,1.235340722E-2,5.367756842E-1
3.977335792E0,-3.942428827E-1,2.093634158E-1,1.039305422E-2,4.465070056E-1
3.987370792E0,-1.981842518E-1,3.961292505E-1,2.187535167E-2,4.434793251E-1
3.997405792E0,-1.967283338E-2,4.719851315E-1,4.885024577E-2,4.749140251E-1
4.007440792E0,1.027579606E-1,5.044816136E-1,4.818489030E-2,5.170905923E-1
4.017475792E0,1.926279217E-1,6.098921895E-1,2.625988610E-2,6.401277846E-1
4.027509792E0,2.269554734E-1,7.144396305E-1,2.440495789E-2,7.500189161E-1
4.037544792E0,1.970566958E-1,6.727606654E-1,6.931596994E-2,7.044451419E-1
4.047579792E0,1.419301480E-1,4.274672866E-1,1.337902248E-1,4.698640998E-1
4.057614792E0,7.897808403E-2,1.640529931E-1,1.541199982E-1,2.385453754E-1
4.067649792E0,-8.744867519E-3,-1.388294529E-2,1.288448572E-1,1.298853576E-1
4.077684792E0,-7.674548775E-2,-7.682222873E-2,6.842704862E-2,1.283502462E-1
4.087719792E0,-1.404252052E-1,-1.155493855E-1,-1.715491340E-2,1.826614076E-1
4.097754792E0,-1.926431507E-1,-1.969757974E-1,-1.070142314E-1,2.955721468E-1
4.107788792E0,-2.124493420E-1,-2.216521055E-1,-1.574289352E-1,3.450336917E-1
4.117823792E0,-1.984608173E-1,-1.998847574E-1,-2.055080533E-1,3.486748804E-1
4.127858792E0,-1.885662526E-1,-1.828774810E-1,-2.970690727E-1,3.965494151E-1
4.137893792E0,-1.869230866E-1,-2.367026210E-1,-4.340343773E-1,5.285396975E-1
4.147928792E0,-1.866255403E-1,-3.568086028E-1,-5.816994905E-1,7.074713907E-1
4.157963792E0,-2.071883380E-1,-5.283696651E-1,-6.984522343E-1,8.999650182E-1
4.167998792E0,-2.163388878E-1,-5.437095165E-1,-7.581784129E-1,9.577353802E-1
4.178033792E0,-2.127438784E-1,-3.654526770E-1,-6.683585048E-1,7.908974066E-1
4.188068792E0,-1.616884321E-1,-1.499511003E-1,-5.120351911E-1,5.575020345E-1
4.198102792E0,-4.239879176E-2,-2.707205527E-2,-3.225148022E-1,3.264143860E-1
4.208137792E0,6.370815635E-2,3.158436716E-2,-1.636210829E-1,1.784044848E-1
4.218172792E0,1.305044889E-1,1.106815785E-1,-8.881342411E-2,1.927943406E-1
4.228207792E0,1.936033964E-1,2.502111197E-1,-4.259996489E-2,3.192219236E-1
4.238242792E0,2.666464448E-1,3.816008270E-1,1.391577628E-2,4.657393762E-1
4.248277792E0,3.455301523E-1,4.975822866E-1,9.965433180E-2,6.139301295E-1
4.258312792E0,4.228723347E-1,6.081506014E-1,1.627086699E-1,7.583813531E-1
4.268347792E0,4.637592435E-1,6.668012738E-1,2.208096236E-1,8.416967771E-1
4.278382792E0,4.924646318E-1,6.928738952E-1,2.517917752E-1,8.865634474E-1
4.288416792E0,5.149002075E-1,6.902874708E-1,2.045638114E-1,8.851357913E-1
4.298451792E0,5.185428262E-1,7.363641262E-1,1.101299822E-1,9.073298198E-1
4.308486792E0,4.943358898E-1,8.861333728E-1,2.372195944E-2,1.014969486E0
4.318521792E0,4.410473704E-1,1.042652726E0,-9.527338669E-3,1.132138799E0
4.328556792E0,3.420313597E-1,1.059077740E0,-1.074363827E-4,1.112938058E0
4.338591792E0,2.553342879E-1,8.649519682E-1,-4.530713707E-2,9.029896137E-1
4.348626792E0,1.904476434E-1,6.179947853E-1,-8.341990411E-2,6.520327752E-1
4.358661792E0,1.050267443E-1,3.931038678E-1,-9.112575650E-2,4.169714275E-1
4.368695792E0,4.752868786E-2,2.172462046E-1,-1.032393798E-1,2.451800545E-1
4.378730792E0,8.761584759E-3,9.791021794E-2,-1.068916395E-1,1.452205176E-1
4.388765792E0,-2.273996361E-2,9.305992164E-3,-9.127398580E-2,9.452326655E-2
4.398800792E0,-5.638660491E-2,-6.722367555E-2,-4.543326050E-2,9.880613810E-2
4.408835792E0,-1.175075024E-1,-1.553277671E-1,4.685331136E-3,1.948247436E-1
4.418870792E0,-1.836588234E-1,-2.976982296E-1,4.691800475E-2,3.529250607E-1
4.428905792E0,-2.577596009E-1,-4.376185834E-1,6.799447536E-2,5.124190522E-1
4.438940792E0,-3.264015019E-1,-4.899209440E-1,5.324003473E-2,5.910964161E-1
4.448975792E0,-3.618733883E-1,-4.677457511E-1,-1.239562174E-3,5.913881749E-1
4.459009792E0,-3.492084742E-1,-3.538884223E-1,-5.562557280E-2,5.002777011E-1
4.469044792E0,-3.186540306E-1,-2.033289820E-1,-1.360975206E-1,4.017531596E-1
4.479079792E0,-2.989453077E-1,-1.113468707E-1,-2.179329991E-1,3.863433897E-1
4.489114792E0,-2.343277931E-1,-2.429008298E-2,-2.549589872E-1,3.471362959E-1
4.499149792E0,-1.265456825E-1,9.764780104E-2,-2.665330768E-1,3.107873611E-1
4.509184792E0,3.231438342E-3,2.097996026E-1,-2.244152278E-1,3.072271308E-1
4.519219792E0,1.531064212E-1,3.351154327E-1,-1.303925961E-1,3.908275305E-1
4.529254792E0,3.017353117E-1,4.624999762E-1,-3.210313246E-2,5.531555273E-1
4.539289792E0,4.132218957E-1,5.379651785E-1,3.103322722E-2,6.790595920E-1
4.549323792E0,4.583527148E-1,5.531009436E-1,7.164425403E-2,7.219007993E-1
4.559358792E0,4.574451149E-1,5.877351165E-1,9.294501692E-2,7.505513816E-1
4.569393792E0,4.192004204E-1,6.740638614E-1,9.771319479E-2,7.997743120E-1
4.579428792E0,3.726984560E-1,8.424483538E-1,1.041015834E-1,9.270709291E-1
4.589463792E0,3.155644238E-1,1.046380758E0,1.006411389E-1,1.097552840E0
4.599498792E0,2.406499833E-1,1.232418776E0,7.736963779E-2,1.258075719E0
4.609533792E0,1.668326706E-1,1.366534352E0,5.570354313E-2,1.377807011E0
4.619568792E0,7.888790965E-2,1.415887475E0,6.266558170E-2,1.419467372E0
4.629603792E0,-4.230093583E-2,1.335772753E0,6.157328933E-2,1.337860040E0
4.639637792E0,-1.878094077E-1,1.172576904E0,5.803954229E-2,1.188939678E0
4.649672792E0,-3.327220380E-1,9.633323550E-1,5.272968113E-2,1.020535938E0
4.659707792E0,-4.720394313E-1,7.396393418E-1,3.987566754E-2,8.783380042E-1
4.669742792E0,-5.754325986E-1,4.735286534E-1,5.325645581E-2,7.471200112E-1
4.679777792E0,-6.928734779E-1,5.025036633E-2,3.808522597E-2,6.957364732E-1
4.689812792E0,-8.224220276E-1,-4.293281734E-1,-1.372561092E-3,9.277405650E-1
4.699847792E0,-9.293657541E-1,-8.109687567E-1,-3.467911854E-2,1.233934225E0
4.709882792E0,-1.000289798E0,-1.038855910E0,-3.918971494E-2,1.442683997E0
4.719916792E0,-1.042802453E0,-1.179569483E0,-2.299741283E-2,1.574595187E0
4.729951792E0,-1.072290063E0,-1.229468226E0,2.867672592E-3,1.631381722E0
4.739986792E0,-1.067642093E0,-1.189252615E0,2.179422602E-2,1.598329255E0
4.750021792E0,-1.031239271E0,-1.023836493E0,1.683765277E-2,1.453264981E0
4.760056792E0,-9.807822108E-1,-7.803549170E-1,-2.618677914E-2,1.253624062E0
4.770091792E0,-9.307283163E-1,-5.798711777E-1,-7.036510110E-2,1.098843496E0
4.780126792E0,-8.616169095E-1,-4.007717669E-1,-8.264707029E-2,9.538512704E-1
4.790161333E0,-7.647458315E-1,-2.419878840E-1,-5.507507548E-2,8.040072057E-1
4.800196333E0,-6.008807421E-1,-3.392123431E-2,-2.317599952E-2,6.022835240E-1
4.810230333E0,-3.957623541E-1,1.611708850E-1,-1.527983416E-2,4.275948648E-1
4.820265333E0,-1.947837174E-1,2.426308692E-1,-4.285500199E-2,3.140811781E-1
4.830300333E0,-2.163118497E-2,2.592341006E-1,-5.960144103E-2,2.668755493E-1
4.840335333E0,7.990795374E-2,2.464186847E-1,-6.544148922E-2,2.671891423E-1
4.850370333E0,9.175737202E-2,2.150894105E-1,-4.855891317E-2,2.388322380E-1
4.860405333E0,7.430621237E-2,1.900706142E-1,3.056076821E-3,2.041019137E-1
4.870440333E0,7.881037146E-2,1.642192751E-1,6.334056705E-2,1.928498701E-1
4.880475333E0,8.126154542E-2,7.804232091E-2,1.262982190E-1,1.692491735E-1
4.890510333E0,5.796501040E-2,-3.683792427E-2,1.992728263E-1,2.107762662E-1
4.900544333E0,-2.023754641E-3,-9.654892236E-2,2.621490061E-1,2.793705271E-1
4.910579333E0,-8.709085733E-2,-7.091458887E-2,3.108297884E-1,3.304978876E-1
4.920614333E0,-1.811774224E-1,-9.380647913E-3,3.564271033E-1,3.999419144E-1
4.930649333E0,-2.676500976E-1,3.624773771E-2,3.798844218E-1,4.661144143E-1
4.940684333E0,-3.207167983E-1,5.569280684E-2,3.563335836E-1,4.826329622E-1
4.950719333E0,-3.680467010E-1,4.579818994E-2,2.916713357E-1,4.718347342E-1
4.960754333E0,-4.025812447E-1,-4.972300678E-2,2.008503526E-1,4.526421325E-1
4.970789333E0,-4.253245592E-1,-2.697489858E-1,1.127914935E-1,5.161273263E-1
4.980823333E0,-4.381005168E-1,-4.681451619E-1,5.760892853E-2,6.437474226E-1
4.990858333E0,-4.547916651E-1,-4.755302370E-1,3.613564745E-2,6.589918436E-1
5.000893333E0,-4.802445471E-1,-3.577956259E-1,3.590235487E-2,5.999512597E-1
5.010928333E0,-5.390747786E-1,-2.983244658E-1,3.222104162E-2,6.169581017E-1
5.020963333E0,-6.206141114E-1,-3.731156290E-1,5.489732698E-2,7.262168164E-1
5.030998333E0,-7.186759114E-1,-5.167998075E-1,9.748838097E-2,8.905510043E-1
5.041033333E0,-8.708457947E-1,-5.601118803E-1,1.397136003E-1,1.044805057E0
5.051068333E0,-1.015320182E0,-4.583788514E-1,1.275573522E-1,1.121274775E0
5.061103333E0,-1.131639957E0,-3.231658936E-1,7.194016129E-2,1.179076153E0
5.071137333E0,-1.241917968E0,-1.883209348E-1,-1.681445539E-2,1.256227583E0
5.081172333E0,-1.309702635E0,-1.394894719E-1,-9.162397683E-2,1.320292868E0
5.091207333E0,-1.405885935E0,-8.524189144E-2,-1.380345374E-1,1.415215523E0
5.101242333E0,-1.588185191E0,1.275417581E-2,-1.773965955E-1,1.598112769E0
5.111277333E0,-1.791023135E0,1.590565145E-1,-1.862649620E-1,1.807693968E0
5.121312333E0,-2.006821156E0,4.081417322E-1,-1.675498635E-1,2.054746646E0
5.131347333E0,-2.193557501E0,6.041219831E-1,-1.712797135E-1,2.281664879E0
5.141382333E0,-2.333272934E0,7.691304088E-1,-1.658356786E-1,2.462361802E0
5.151417333E0,-2.487555742E0,7.146999240E-1,-2.029125541E-1,2.596132327E0
5.161451333E0,-2.653326273E0,4.748665690E-1,-2.697379291E-1,2.708947604E0
5.171486333E0,-2.785010815E0,2.873970270E-1,-2.963761687E-1,2.815443326E0
5.181521333E0,-2.836054802E0,2.353710979E-1,-3.015608191E-1,2.861738164E0
5.191556333E0,-2.793091774E0,3.329057395E-1,-2.963955402E-1,2.828433879E0
5.201591333E0,-2.672051668E0,5.010134578E-1,-2.825622857E-1,2.733261065E0
5.211626333E0,-2.529230356E0,4.542478621E-1,-2.836631238E-1,2.585306961E0
5.221661333E0,-2.397420406E0,2.417230904E-1,-3.104462624E-1,2.429492033E0
5.231696333E0,-2.275228024E0,1.473778114E-2,-3.163310289E-1,2.297160221E0
5.241731333E0,-2.147513628E0,-1.824479997E-1,-2.836990356E-1,2.173841576E0
5.251765333E0,-2.005804777E0,-3.297846317E-1,-2.426887304E-1,2.047170859E0
5.261800333E0,-1.836444139E0,-3.964739144E-1,-1.932596564E-1,1.888668297E0
5.271835333E0,-1.621991396E0,-3.693392277E-1,-1.371044219E-1,1.669151035E0
5.281870333E0,-1.368810058E0,-3.511735201E-1,-9.893359244E-2,1.416598627E0
5.291905333E0,-1.139624357E0,-4.494231641E-1,-1.067449003E-1,1.229682613E0
5.301940333E0,-9.469955564E-1,-5.904096365E-1,-1.306201369E-1,1.123586108E0
5.311975333E0,-7.846072316E-1,-6.917900443E-1,-1.294090301E-1,1.054006011E0
5.322010333E0,-6.917436123E-1,-6.494635940E-1,-8.351770788E-2,9.525163477E-1
5.332044333E0,-6.270374060E-1,-5.720863342E-1,-2.860789001E-2,8.492803387E-1
5.342079333E0,-5.337322354E-1,-5.586871505E-1,-9.448960191E-5,7.726586828E-1
5.352114333E0,-4.716187418E-1,-5.620564818E-1,1.585024409E-2,7.338821135E-1
5.362149333E0,-4.738259912E-1,-5.186528563E-1,2.517370507E-2,7.029548853E-1
5.372184333E0,-4.954584241E-1,-4.070671201E-1,5.542160571E-2,6.436258576E-1
5.382219333E0,-4.933832884E-1,-2.798572481E-1,8.246894181E-2,5.731913074E-1
5.392254333E0,-5.141782165E-1,-1.459347308E-1,1.023573130E-1,5.441995989E-1
5.402289333E0,-5.948014259E-1,-6.966232508E-2,1.105422750E-1,6.089837193E-1
5.412324333E0,-6.729523540E-1,-4.445425048E-2,9.793218970E-2,6.814923073E-1
5.422358333E0,-7.462119460E-1,-1.133164018E-1,6.389406323E-2,7.574663865E-1
5.432393333E0,-8.043176532E-1,-2.641823888E-1,3.242995590E-2,8.472136235E-1
5.442428333E0,-8.479721546E-1,-3.797958195E-1,3.875709325E-2,9.299482522E-1
5.452463333E0,-9.073421359E-1,-4.523037970E-1,6.453342736E-2,1.015880426E0
5.462498333E0,-9.907987118E-1,-5.359845757E-1,8.315904438E-2,1.129547245E0
5.472533333E0,-1.074236274E0,-5.928570032E-1,7.654426992E-2,1.229358379E0
5.482568333E0,-1.116185546E0,-5.941792727E-1,5.788270012E-2,1.265807880E0
5.492603333E0,-1.123798132E0,-5.098623633E-1,3.916183487E-2,1.234672232E0
5.502638333E0,-1.136377096E0,-4.897988737E-1,-8.354815654E-3,1.237467432E0
5.512672333E0,-1.148248792E0,-4.939153194E-1,-4.279157147E-2,1.250703302E0
5.522707333E0,-1.143894196E0,-4.920279384E-1,-5.260585248E-2,1.246335749E0
5.532742333E0,-1.097602248E0,-5.026962161E-1,-4.169742018E-2,1.207962274E0
5.542777333E0,-1.017365575E0,-5.614463687E-1,-2.855951153E-2,1.162355532E0
5.552812333E0,-9.308141470E-1,-6.279633045E-1,-1.997168362E-2,1.123010132E0
5.562847333E0,-8.224655390E-1,-5.831409693E-1,3.396851197E-2,1.008789776E0
5.572882333E0,-7.155194283E-1,-4.878960550E-1,5.913958699E-2,8.680484453E-1
5.582917333E0,-6.009350419E-1,-4.431725144E-1,4.266181216E-2,7.478935970E-1
5.592951333E0,-4.563075602E-1,-3.816581666E-1,2.948108688E-2,5.956078241E-1
5.602986333E0,-3.042655587E-1,-2.244757414E-1,4.481690004E-2,3.807564093E-1
5.613021333E0,-2.063558400E-1,-1.247997358E-1,7.075374573E-2,2.513240921E-1
5.623056333E0,-1.501016319E-1,-1.211613268E-1,9.800294042E-2,2.163680737E-1
5.633091333E0,-9.294646233E-2,-6.919413060E-2,1.298854500E-1,1.740606294E-1
5.643126333E0,-4.791560024E-2,-5.817290395E-2,1.542603076E-1,1.716864409E-1
5.653161333E0,-2.665962838E-2,-1.870428771E-2,1.499373913E-1,1.534333975E-1
5.663196333E0,-3.077101521E-2,8.912950009E-2,1.388826072E-1,1.678669168E-1
5.673231333E0,-6.182288378E-2,1.242545098E-1,1.133381352E-1,1.791836629E-1
5.683265333E0,-1.105874926E-1,1.322367936E-1,7.629010081E-2,1.885108554E-1
5.693300333E0,-1.562649310E-1,2.371321470E-1,5.436415225E-2,2.891467531E-1
5.703335333E0,-2.309045345E-1,2.942628264E-1,2.484780736E-2,3.748665477E-1
5.713370333E0,-3.125953972E-1,2.812075615E-1,-3.777763620E-2,4.221619651E-1
5.723405333E0,-3.520373404E-1,3.748717308E-1,-5.871833861E-2,5.175972825E-1
5.733440333E0,-3.409368396E-1,5.610754490E-1,-4.674726352E-2,6.582012570E-1
5.743475333E0,-2.845492065E-1,6.750432849E-1,-5.687925965E-2,7.347699896E-1
5.753510333E0,-1.626796573E-1,6.673452258E-1,-9.539053589E-2,6.934793982E-1
5.763545333E0,4.164018482E-2,6.485131979E-1,-1.451786011E-1,6.658679292E-1
5.773579333E0,2.975586951E-1,6.459004283E-1,-1.947902292E-1,7.373410159E-1
5.783614333E0,5.372615457E-1,6.936551929E-1,-2.185368389E-1,9.041934776E-1
5.793649417E0,8.620961308E-1,9.072306752E-1,-2.257033587E-1,1.271699352E0
5.803684417E0,1.288076043E0,1.003614664E0,-2.114597112E-1,1.646541070E0
5.813719417E0,1.658532977E0,9.665310383E-1,-1.472485065E-1,1.925252193E0
5.823754417E0,1.944162607E0,1.031325817E0,-4.626837745E-2,2.201259173E0
5.833789417E0,2.174365759E0,1.145040870E0,6.576761603E-2,2.458314550E0
5.843824417E0,2.354094505E0,1.199179769E0,1.539970785E-1,2.646414207E0
5.853859417E0,2.464529514E0,1.270278096E0,2.305908054E-1,2.782208527E0
5.863893417E0,2.436653614E0,1.252164364E0,3.263375759E-1,2.758929619E0
5.873928417E0,2.310337067E0,1.152132154E0,4.339512289E-1,2.617896012E0
5.883963417E0,2.250495195E0,1.137040734E0,5.901086330E-1,2.589559510E0
5.893998417E0,2.409254789E0,8.966999650E-1,7.466080785E-1,2.676939127E0
5.904033417E0,2.796145201E0,5.766884089E-1,8.972289562E-1,2.992660573E0
5.914068417E0,3.312854290E0,4.122537673E-1,1.067630291E0,3.504966641E0
5.924103417E0,4.103131294E0,4.097389281E-1,1.216672421E0,4.299286474E0
5.934138417E0,5.008982658E0,4.139386117E-1,1.264503121E0,5.182684689E0
5.944173417E0,6.094054222E0,4.544748366E-1,1.219691873E0,6.231508044E0
5.954207417E0,7.178367615E0,3.460353315E-1,1.008603930E0,7.257133315E0
5.964242417E0,8.236156464E0,-5.483406037E-2,7.469742298E-1,8.270142113E0
5.974277417E0,9.422629356E0,-1.654037535E-1,5.288848877E-1,9.438909980E0
5.984312417E0,1.061102295E1,-5.394477630E-4,3.234393299E-1,1.061595127E1
5.994347417E0,1.189961433E1,4.114236534E-1,-4.418995976E-2,1.190680660E1
6.004382417E0,1.327456093E1,1.762337685E0,-4.691574872E-1,1.339925038E1
6.014417417E0,1.462681770E1,2.628271341E0,-5.944385529E-1,1.487296082E1
6.024452417E0,1.602723885E1,1.939000726E0,-3.004652858E-1,1.614690027E1
6.034486417E0,1.670542526E1,4.886218905E-2,7.802236825E-2,1.670567892E1
6.044521417E0,1.638247108E1,-1.319558620E0,1.222881004E-1,1.643598333E1
6.054556417E0,1.634956169E1,-1.357152104E0,3.201949224E-2,1.640582380E1
6.064591417E0,1.634181786E1,-1.354732871E0,-6.010750681E-2,1.639798539E1
6.074626417E0,1.633345222E1,-1.364967823E0,-1.550293118E-1,1.639112055E1
6.084661417E0,1.633673286E1,-1.389364839E0,-2.510269582E-1,1.639762757E1
6.094696417E0,1.634115601E1,-1.425503492E0,-3.519430161E-1,1.640698948E1
6.104731417E0,1.634805298E1,-1.484623551E0,-4.536848366E-1,1.642159472E1
6.114766417E0,1.635027885E1,-1.559748650E0,-5.674074888E-1,1.643430515E1
6.124800417E0,1.634310341E1,-1.650895000E0,-6.865115166E-1,1.644061378E1
6.134835417E0,1.632942581E1,-1.761255383E0,-8.110921979E-1,1.644414906E1
6.144870417E0,1.630269241E1,-1.891141772E0,-9.526605010E-1,1.643963987E1
6.154905417E0,1.626993752E1,-2.049085379E0,-1.104999423E0,1.643565153E1
6.164940417E0,1.623000145E1,-2.231482983E0,-1.273945570E0,1.643214535E1
6.174975417E0,1.618224525E1,-2.440602064E0,-1.461375475E0,1.643037486E1
6.185010417E0,1.611764336E1,-2.677395821E0,-1.671818376E0,1.642381967E1
6.195045417E0,1.604724121E1,-2.945548534E0,-1.902869225E0,1.642592822E1
6.205079417E0,1.596531487E1,-3.257709503E0,-2.162541866E0,1.643716938E1
6.215114417E0,1.587574863E1,-3.608968258E0,-2.449060678E0,1.646395896E1
6.225149417E0,1.575771809E1,-4.003322601E0,-2.771051645E0,1.649275594E1
6.235184417E0,1.562456799E1,-4.439587116E0,-3.130105019E0,1.654190485E1
6.245219417E0,1.546157837E1,-4.924879074E0,-3.528225183E0,1.660611973E1
6.255254417E0,1.525209904E1,-5.466024876E0,-3.969942093E0,1.668125874E1
6.265289417E0,1.499374962E1,-6.063649654E0,-4.451822758E0,1.677495456E1
6.275324417E0,1.467520714E1,-6.715471268E0,-4.983320236E0,1.689061099E1
6.285359417E0,1.428900051E1,-7.432768345E0,-5.566272259E0,1.704127248E1
6.295393417E0,1.381531334E1,-8.202896118E0,-6.193245888E0,1.721936938E1
6.305428417E0,1.324086475E1,-9.028488159E0,-6.863198757E0,1.743380610E1
6.315463417E0,1.253902721E1,-9.899233818E0,-7.568524837E0,1.767779969E1
6.325498417E0,1.170659161E1,-1.080262375E1,-8.303837776E0,1.796370476E1
6.335533417E0,1.071777916E1,-1.171565247E1,-9.046240807E0,1.827462108E1
6.345568417E0,9.562279701E0,-1.261223984E1,-9.775904655E0,1.860306691E1
6.355603417E0,8.235623360E0,-1.346532059E1,-1.047299480E1,1.894264952E1
6.365638417E0,6.731482029E0,-1.422343922E1,-1.110309124E1,1.925870475E1
6.375673417E0,5.071368217E0,-1.484981918E1,-1.162724590E1,1.953020104E1
6.385707417E0,3.281509876E0,-1.530283165E1,-1.202848244E1,1.973903122E1
6.395742417E0,1.401466608E0,-1.554875088E1,-1.227003098E1,1.985652091E1
6.405777417E0,-5.148195028E-1,-1.557386971E1,-1.234197903E1,1.987800048E1
6.415812417E0,-2.421442747E0,-1.538237286E1,-1.223737526E1,1.980490174E1
6.425847417E0,-4.255754948E0,-1.497901344E1,-1.196415234E1,1.963729195E1
6.435882417E0,-5.978417397E0,-1.439546680E1,-1.154733753E1,1.939876138E1
6.445917417E0,-7.557629108E0,-1.366295338E1,-1.100410461E1,1.910194679E1
6.455952417E0,-8.967142105E0,-1.283384418E1,-1.037302589E1,1.878075771E1
6.465987417E0,-1.020108700E1,-1.194985676E1,-9.679653168E0,1.845418484E1
6.476021417E0,-1.125702667E1,-1.104872036E1,-8.956755638E0,1.813886277E1
6.486056417E0,-1.214154243E1,-1.014832973E1,-8.216941833E0,1.783041733E1
6.496091417E0,-1.286911583E1,-9.270937920E0,-7.491865158E0,1.754116517E1
6.506126417E0,-1.345555305E1,-8.431663513E0,-6.794311523E0,1.727158148E1
6.516161417E0,-1.392986107E1,-7.642797947E0,-6.127514839E0,1.702938131E1
6.526196417E0,-1.430782318E1,-6.895877361E0,-5.499528885E0,1.680808575E1
6.536231417E0,-1.460913563E1,-6.211941242E0,-4.918948650E0,1.661960028E1
6.546266417E0,-1.484023094E1,-5.583394051E0,-4.382587433E0,1.645034395E1
6.556300417E0,-1.502729416E1,-5.012292862E0,-3.889764547E0,1.631174171E1
6.566335417E0,-1.517543888E1,-4.493791103E0,-3.438398838E0,1.619600847E1
6.576370417E0,-1.529436016E1,-4.012238503E0,-3.028840542E0,1.609935979E1
6.586405417E0,-1.538965225E1,-3.579870462E0,-2.657560587E0,1.602246851E1
6.596440417E0,-1.547171116E1,-3.180862427E0,-2.317434788E0,1.596440528E1
6.606475417E0,-1.553866386E1,-2.818470478E0,-2.015137672E0,1.592025849E1
6.616510417E0,-1.558857918E1,-2.490942478E0,-1.740000844E0,1.588194567E1
6.626545417E0,-1.563226700E1,-2.201049328E0,-1.492849350E0,1.585689089E1
6.636580417E0,-1.566478062E1,-1.927574277E0,-1.272026300E0,1.583410702E1
6.646614417E0,-1.569551754E1,-1.683146715E0,-1.073875666E0,1.582199301E1
6.656649417E0,-1.571890259E1,-1.462966084E0,-8.936572671E-1,1.581210902E1
6.666684417E0,-1.572494602E1,-1.273445487E0,-7.356466055E-1,1.579356726E1
6.676719417E0,-1.572506714E1,-1.111869216E0,-5.927711725E-1,1.577546726E1
6.686754417E0,-1.570310688E1,-9.744674563E-1,-4.597350955E-1,1.574002887E1
6.696789417E0,-1.567363453E1,-8.562775850E-1,-3.430910408E-1,1.570075610E1
6.706824417E0,-1.563431072E1,-7.632317543E-1,-2.363826931E-1,1.565471403E1
6.716859417E0,-1.559813595E1,-7.094796300E-1,-1.382972449E-1,1.561487536E1
6.726893417E0,-1.556243134E1,-6.857215762E-1,-4.208149016E-2,1.557758820E1
6.736928417E0,-1.553320980E1,-6.878436208E-1,5.071274191E-2,1.554851463E1
6.746963417E0,-1.550161839E1,-7.106245756E-1,1.437555999E-1,1.551856390E1
6.756998417E0,-1.547864532E1,-7.617859244E-1,2.404948920E-1,1.549924568E1
6.767033417E0,-1.547610950E1,-8.376010656E-1,3.454681933E-1,1.550260911E1
6.777068417E0,-1.549918079E1,-9.428102374E-1,4.565370679E-1,1.553453966E1
6.787103167E0,-1.553019238E1,-1.086337566E0,5.794201493E-1,1.557891948E1
6.797138167E0,-1.555959606E1,-1.268353701E0,7.133514881E-1,1.562749567E1
6.807173167E0,-1.560259819E1,-1.474278450E0,8.654683232E-1,1.569597409E1
6.817207167E0,-1.563408375E1,-1.700365782E0,1.037509441E0,1.576046460E1
6.827242167E0,-1.432237053E1,4.731993675E0,-2.381159216E-1,1.508571380E1
6.837277167E0,-1.472204304E1,2.333745384E1,-3.606066465E0,2.782766642E1
6.847312167E0,-3.087886095E0,1.402647018E1,-1.632520437E0,1.445482720E1
6.857347167E0,6.448113322E-1,3.625764847E0,2.656522095E-1,3.692224732E0
6.867382167E0,6.896837354E-1,-8.404964805E-1,4.926041067E-1,1.193631767E0
6.877417167E0,1.215750501E-1,-9.986329675E-1,4.081449807E-1,1.085647559E0
6.887452167E0,-3.265097737E-1,-5.948106647E-1,2.863138914E-1,7.364672454E-1
6.897486167E0,-4.435920417E-1,-3.665348291E-1,3.100968599E-1,6.536679149E-1
6.907521167E0,-4.144637287E-1,-3.773317933E-1,4.196193516E-1,7.001713111E-1
6.917556167E0,-3.460671604E-1,-3.347262740E-1,5.965539813E-1,7.666034246E-1
6.927591167E0,-2.636165023E-1,-2.054985315E-1,8.115360737E-1,8.776753988E-1
6.937626167E0,-1.776344478E-1,-1.385070384E-1,1.090850353E0,1.113863856E0
6.947661167E0,-9.240078926E-2,-2.176332772E-1,1.413989544E0,1.433620793E0
6.957696167E0,-1.770732738E-2,-5.580444932E-1,1.757789135E0,1.844329105E0
6.967731167E0,1.275257580E-2,-1.331145525E0,2.059834242E0,2.452555431E0
6.977766167E0,8.039007336E-2,-2.388950586E0,2.295194149E0,3.313829152E0
6.987800167E0,2.571720183E-1,-3.111449242E0,2.346636295E0,3.905631285E0
6.997835167E0,5.129339099E-1,-2.503179073E0,2.069067478E0,3.287863577E0
7.007870167E0,5.890888572E-1,-3.979951143E-1,1.408393741E0,1.577656085E0
7.017905167E0,4.474349320E-1,2.139581203E0,4.103706479E-1,2.224052565E0
7.027940167E0,2.016337067E-1,2.903270960E0,-2.197036892E-1,2.918545550E0
7.037975167E0,-1.969139650E-2,1.941887617E0,-1.432944983E-1,1.947266952E0
7.048010167E0,-1.823378354E-1,6.491511464E-1,9.726731107E-3,6.743433149E-1
7.058045167E0,-2.305637747E-1,-1.103912815E-1,2.382639097E-3,2.556395240E-1
7.068080167E0,-1.654082090E-1,-2.627387345E-1,-2.517575212E-2,3.114889030E-1
7.078114167E0,-5.975587666E-2,-1.240307093E-1,-1.062400918E-2,1.380842178E-1
7.088149167E0,2.820167691E-2,3.370565921E-2,-9.127922822E-4,4.395724324E-2
7.098184167E0,5.826563761E-2,1.035504416E-1,-2.080075443E-3,1.188356226E-1
7.108219167E0,3.445111960E-2,9.417957067E-2,-2.085668035E-3,1.003046419E-1
7.118254167E0,-9.412564337E-3,5.682907626E-2,2.240507631E-3,5.764685725E-2
7.128289167E0,-2.276805043E-2,3.826657683E-2,1.469788840E-3,4.455193937E-2
7.138324167E0,-1.590855047E-2,3.700004146E-2,1.419158885E-3,4.030011238E-2
7.148359167E0,-3.668927588E-3,4.325181246E-2,-4.535758635E-4,4.340951557E-2
7.158393167E0,1.169365249E-3,4.090573266E-2,-1.014128909E-3,4.093500748E-2
7.168428167E0,1.579492004E-3,3.346352652E-2,-3.171797143E-4,3.350228358E-2
7.178463167E0,-7.716518594E-4,2.615187131E-2,-2.378862351E-3,2.627117823E-2
7.188498167E0,-3.531219438E-3,2.289642207E-2,1.319735660E-3,2.320468394E-2
7.198533167E0,-3.105947282E-3,2.228087559E-2,-1.578971627E-3,2.255166240E-2
7.208568167E0,-3.224457614E-3,2.425587550E-2,-1.315584988E-3,2.450459930E-2
7.218603167E0,-7.607096341E-4,2.345004492E-2,-1.610686304E-4,2.346293308E-2
7.228638167E0,-6.600422785E-4,2.115147188E-2,-1.430863980E-3,2.121008700E-2
7.238673167E0,-2.115563722E-3,1.733255200E-2,-2.555910964E-3,1.764725615E-2
7.248707167E0,-2.635945333E-3,1.923910901E-2,-1.138576656E-3,1.945219474E-2
7.258742167E0,6.193749723E-4,1.679463312E-2,1.072896412E-3,1.684026228E-2
7.268777167E0,2.366787521E-4,1.434345916E-2,2.028417075E-4,1.434684572E-2
7.278812167E0,1.522186561E-3,1.522070356E-2,1.314178808E-3,1.535297804E-2
7.288847167E0,-6.281421520E-4,1.590579934E-2,1.408978133E-4,1.591882117E-2
7.298882167E0,6.056322600E-4,1.229490153E-2,-3.012795001E-3,1.267313410E-2
7.308917167E0,1.741204178E-3,1.245575678E-2,-7.107587298E-4,1.259693799E-2
7.318952167E0,-8.984293090E-4,1.407109946E-2,-4.109952715E-4,1.410574111E-2
7.328986167E0,1.034520101E-4,1.114481874E-2,-2.306992537E-4,1.114768627E-2
7.339021167E0,1.144631533E-4,1.220249478E-2,-1.095003216E-3,1.225206157E-2
7.349056167E0,-1.251205918E-3,9.902855381E-3,-5.557130789E-4,9.997043462E-3
7.359091167E0,1.718612039E-3,1.106768381E-2,-2.313252189E-4,1.120271233E-2
7.369126167E0,-1.886775368E-3,8.340340108E-3,7.561748498E-4,8.584462406E-3
7.379161167E0,1.648908830E-3,8.058697917E-3,-1.522213570E-4,8.227070182E-3
7.389196167E0,2.864166163E-5,8.192654699E-3,2.557749394E-4,8.196696419E-3
7.399231167E0,1.930607250E-4,9.022505954E-3,5.858402001E-4,9.043566491E-3
7.409266167E0,-2.523363568E-3,1.039296854E-2,-1.480240142E-3,1.079686388E-2
7.419300167E0,3.668148420E-4,7.218568586E-3,-1.795220305E-3,7.447489611E-3
7.429335167E0,2.119707409E-3,8.283300325E-3,-5.331482971E-4,8.566823851E-3
7.439370167E0,5.750507116E-4,8.341671899E-3,-1.410306664E-3,8.479571822E-3
7.449405167E0,-3.634607885E-3,7.236992940E-3,3.218133061E-4,8.104813699E-3
7.459440167E0,1.408643438E-3,8.825786412E-3,2.183808712E-3,9.200424045E-3
7.469475167E0,-1.178805251E-4,5.981263705E-3,-1.192930504E-4,5.983614472E-3
7.479510167E0,-1.777533907E-4,7.718612906E-3,-9.959107265E-4,7.784627135E-3
7.489545167E0,1.085383934E-3,4.930549301E-3,2.834717743E-4,5.056553267E-3
7.499579167E0,-2.183578443E-3,4.777601920E-3,-3.690255107E-4,5.265897336E-3
7.509614167E0,5.773780867E-5,5.619693547E-3,1.300243894E-3,5.768442026E-3
7.519649167E0,7.299170829E-5,4.889043048E-3,9.677233174E-5,4.890545430E-3
7.529684167E0,3.677268978E-5,4.793968052E-3,9.628323023E-4,4.889839256E-3
7.539719167E0,-2.953139832E-3,4.314613994E-3,-1.039184746E-3,5.330744200E-3
7.549754167E0,6.503835903E-4,5.509840325E-3,3.193865996E-5,5.548185225E-3
7.559789167E0,-7.413148414E-4,7.397939451E-3,-1.605393016E-3,7.606335685E-3
7.569824167E0,-1.879816176E-3,6.813376211E-3,-1.769177499E-3,7.285999813E-3
7.579859167E0,-1.687176526E-3,5.725876428E-3,-7.018895121E-4,6.010397190E-3
7.589893167E0,-4.876888124E-4,5.807369016E-3,4.661729618E-4,5.846425617E-3
7.599928167E0,-1.751729869E-3,5.173260346E-3,-1.253000810E-3,5.603676576E-3
7.609963167E0,-2.264122013E-3,5.122660659E-3,-9.773635538E-4,5.685344338E-3
7.619998167E0,3.311284818E-4,4.393753596E-3,6.024236209E-4,4.447204847E-3
7.630033167E0,1.447857358E-5,5.965018645E-3,4.429002583E-4,5.981456152E-3
7.640068167E0,-2.116606105E-3,5.402074661E-3,-4.353233962E-4,5.818241874E-3
7.650103167E0,1.176392427E-3,2.855293918E-3,-1.628820319E-4,3.092431577E-3
7.660138167E0,-5.551233189E-4,5.939887371E-3,1.564390259E-4,5.967821801E-3
7.670172167E0,-2.119197976E-3,4.533738364E-3,-7.860536571E-4,5.065931697E-3
7.680207167E0,1.518319594E-3,4.146709107E-3,-1.639193157E-3,4.710355083E-3
7.690242167E0,2.993907547E-4,3.612478729E-3,-1.421080204E-3,3.893469704E-3
7.700277167E0,1.704474562E-3,4.550443962E-3,3.973420244E-4,4.875413261E-3
7.710312167E0,-4.007542739E-4,5.370165221E-3,-4.743105965E-4,5.405945711E-3
7.720347167E0,6.784284487E-4,5.323414225E-3,-6.851501530E-4,5.410030952E-3
7.730382167E0,6.424757885E-4,4.397166893E-3,1.267213258E-3,4.621004357E-3
7.740417167E0,1.188742463E-4,2.071089810E-3,3.138590138E-3,3.762219045E-3
7.750452167E0,1.740739332E-3,3.082025563E-3,-6.731923204E-4,3.603087966E-3
7.760486167E0,-2.842711983E-3,3.468619660E-3,-2.287673997E-4,4.490508689E-3
7.770521167E0,1.583461533E-3,3.596185241E-3,1.312403940E-3,4.142740979E-3
7.780556167E0,-1.754694851E-3,5.151166115E-3,-3.423391841E-3,6.429080655E-3
7.790591417E0,3.843269777E-3,2.130076289E-3,-2.543217037E-3,5.076997190E-3
7.800626417E0,-2.092025243E-4,2.348184120E-3,-3.529716632E-4,2.383762436E-3
7.810661417E0,-2.256640699E-3,2.770294901E-3,1.795666758E-3,3.998922378E-3
7.820696417E0,1.493776916E-3,3.272915957E-3,-1.762943109E-3,4.006409458E-3
7.830731417E0,1.121466979E-3,2.146665007E-3,6.984430365E-5,2.422960393E-3
7.840765417E0,-1.471741125E-4,3.013615962E-3,5.218515871E-4,3.062004322E-3
7.850800417E0,2.582832240E-3,-9.057581774E-4,8.984225569E-4,2.880726184E-3
7.860835417E0,2.094114898E-4,3.240115475E-3,5.709463730E-4,3.296692467E-3
7.870870417E0,-9.274920449E-4,3.551971633E-3,-6.916582934E-4,3.735657261E-3
7.880905417E0,3.014845424E-4,6.021908484E-5,1.284165774E-4,3.331817595E-4
7.890940417E0,-1.024237135E-3,3.063465934E-3,1.202469459E-3,3.446711192E-3
7.900975417E0,6.927838549E-4,3.375893226E-3,1.709965873E-4,3.450484658E-3
7.911010417E0,2.823907416E-4,2.231532708E-3,1.468488714E-3,2.686250521E-3
7.921045417E0,2.422753721E-3,1.434894162E-3,2.189882332E-3,3.567105477E-3
7.931079417E0,-1.486766734E-3,4.588875454E-3,4.910518182E-4,4.848647764E-3
7.941114417E0,3.946752986E-4,4.196195398E-3,9.192713769E-4,4.313801603E-3
7.951149417E0,1.567797735E-3,2.787116915E-3,2.814442851E-4,3.210174656E-3
7.961184417E0,3.244401305E-4,1.797839534E-3,-9.773846250E-4,2.071899875E-3
7.971219417E0,-5.426851567E-4,3.765382804E-3,-2.513229847E-3,4.559488908E-3
7.981254417E0,-2.748231636E-4,3.965661163E-4,1.803817693E-3,1.867230764E-3
7.991289417E0,-1.413324499E-3,3.440559376E-3,6.716698408E-6,3.719540304E-3
8.001324417E0,1.364455209E-3,2.105565276E-3,-7.560656522E-4,2.620453858E-3
8.011358417E0,-5.261227489E-4,1.878663898E-3,7.566098939E-4,2.092520422E-3
8.021393417E0,1.933379215E-3,1.952874009E-3,-5.818094360E-5,2.748646413E-3
8.031428417E0,-1.093036961E-3,2.959016012E-3,1.633940265E-4,3.158671107E-3
8.041463417E0,1.436953899E-3,1.673261868E-3,-2.624235814E-3,3.428010413E-3
8.051498417E0,-1.642192830E-3,3.243708052E-4,1.058383379E-3,1.980451738E-3
8.061533417E0,-2.395587042E-3,2.017061226E-3,-4.181988188E-4,3.159472031E-3
8.071568417E0,-2.480275696E-3,1.830639900E-3,-1.957239583E-3,3.651547173E-3
8.081603417E0,-6.044761976E-4,8.533468936E-4,-1.646064455E-3,1.950159117E-3
8.091638417E0,-1.666278578E-3,7.098024944E-4,9.939271258E-4,2.065961039E-3
8.101672417E0,-4.905716050E-4,1.147369854E-3,-6.956198486E-4,1.428637482E-3
8.111707417E0,-7.272174116E-5,5.990249338E-4,-2.777698683E-4,6.642856484E-4
8.121742417E0,-3.958070884E-4,1.519137295E-3,-2.891895361E-3,3.290516700E-3
8.131777417E0,2.622600878E-4,2.395583550E-3,-8.899973473E-4,2.568987383E-3
8.141812417E0,1.152971527E-4,3.341548145E-3,-1.036972972E-4,3.345144327E-3
8.151847417E0,2.474966459E-5,1.774544362E-3,-1.464838861E-3,2.301167774E-3
8.161882417E0,-7.025754312E-4,1.587851788E-3,-1.760457293E-3,2.472669694E-3
8.171917417E0,-5.214805715E-4,1.290110289E-3,6.068265066E-4,1.518079363E-3
8.181951417E0,-2.311035525E-3,3.688645083E-3,2.444739803E-4,4.359673758E-3
8.191986417E0,-2.017022576E-3,6.822027499E-4,-1.332649961E-3,2.511918905E-3
8.202021417E0,2.938830294E-4,-8.744407096E-4,-4.064139212E-4,1.008060546E-3
8.212056417E0,1.038502902E-3,1.199096558E-3,-4.298497224E-4,1.643499807E-3
8.222091417E0,-1.772074611E-3,3.235327546E-3,-1.554950839E-3,4.003181843E-3
8.232126417E0,9.297023062E-4,2.590576187E-3,-5.852058530E-5,2.752972215E-3
8.242161417E0,6.698649377E-4,7.719008718E-4,-2.346070250E-4,1.048613583E-3
8.252196417E0,-2.197826980E-3,1.154330792E-3,-2.247956814E-3,3.349064474E-3
8.262231417E0,5.487737362E-4,1.235927106E-3,2.209516708E-3,2.590488855E-3
8.272265417E0,-3.818701953E-5,-9.609145345E-4,-1.378560206E-3,1.680845987E-3
8.282300417E0,2.931602066E-4,-1.982621849E-3,-6.025884068E-5,2.005084395E-3
8.292335417E0,-1.885838225E-3,-2.307944233E-4,1.058535185E-3,2.174890483E-3
8.302370417E0,-3.065513214E-3,1.584614045E-3,-4.695878015E-4,3.482654970E-3
8.312405417E0,-3.096743021E-4,1.716707018E-3,-7.500186912E-4,1.898817842E-3
8.322440417E0,1.076318091E-3,4.024698865E-4,1.180824125E-3,1.647661451E-3
8.332475417E0,6.171891582E-4,-4.926185356E-4,-1.539522782E-4,8.045475639E-4
8.342510417E0,1.651469385E-3,-6.123968633E-4,-1.329749590E-3,2.206946991E-3
8.352544417E0,6.928539369E-5,1.444628811E-3,-1.245061168E-3,1.908384181E-3
8.362579417E0,1.489574905E-3,-9.339498938E-4,2.188601065E-3,2.807324424E-3
8.372614417E0,4.855631851E-4,8.250680985E-4,1.209623064E-3,1.542626634E-3
8.382649417E0,1.185569214E-3,1.404673094E-4,-1.141223009E-3,1.651573608E-3
8.392684417E0,-3.524062922E-4,-2.984485822E-3,-1.642429852E-3,3.424751324E-3
8.402719417E0,2.696020296E-3,-6.757818628E-4,1.666658325E-3,3.240826520E-3
8.412754417E0,-2.030967735E-4,-3.197172191E-4,1.186490408E-3,1.245482592E-3
8.422789417E0,-1.120176516E-3,2.009299584E-3,-1.230222289E-3,2.608740525E-3
8.432824417E0,2.535012085E-3,2.190927509E-3,2.763280063E-4,3.361964722E-3
8.442858417E0,-2.551049693E-4,3.046489554E-3,-1.233045361E-3,3.296449303E-3
8.452893417E0,-7.776170969E-4,-4.411861300E-4,-5.621950841E-4,1.056123508E-3
8.462928417E0,-2.870956669E-4,1.398015535E-3,-1.503448933E-3,2.072976134E-3
8.472963417E0,-4.990833113E-4,-6.725922576E-4,1.237476594E-3,1.494259956E-3
8.482998417E0,6.180249038E-4,8.789565181E-4,8.041531546E-4,1.342081085E-3
8.493033417E0,-1.129541430E-3,2.417996991E-3,-1.350077917E-3,2.990866709E-3
8.503068417E0,-2.997180680E-3,1.162359025E-3,-4.820416798E-4,3.250620666E-3
8.513103417E0,-9.742437396E-4,6.369173061E-4,-6.146671367E-4,1.316294119E-3
8.523137417E0,1.213624375E-3,1.015916467E-3,5.678196321E-4,1.681484322E-3
8.533172417E0,2.108979039E-3,2.507286379E-3,-1.225819346E-3,3.498129592E-3
8.543207417E0,-1.205713954E-3,1.944759861E-4,2.270940226E-3,2.578514409E-3
8.553242417E0,5.884576822E-4,4.211110063E-4,9.931555251E-4,1.228810327E-3
8.563277417E0,2.769289771E-3,3.503727494E-4,-8.809181163E-4,2.927070827E-3
8.573312417E0,3.484764020E-4,1.868108171E-3,1.801950391E-3,2.618833548E-3
8.583347417E0,-1.303591300E-3,2.768796403E-3,-1.724645030E-3,3.512831376E-3
8.593382417E0,-1.199461753E-3,-9.330280591E-5,1.243448118E-3,1.730195692E-3
8.603417417E0,-4.995322088E-4,1.162481727E-3,9.388874751E-4,1.575565259E-3
8.613451417E0,-5.824631080E-5,2.980197314E-4,1.115455059E-3,1.156048607E-3
8.623486417E0,-2.417126903E-3,2.509200014E-3,-1.637100358E-4,3.487891649E-3
8.633521417E0,-2.183567733E-3,-2.130559646E-3,-9.658540948E-4,3.200019778E-3
8.643556417E0,-3.711911384E-3,7.075439207E-3,1.979443710E-3,8.231544418E-3
8.653591417E0,-7.988710701E-2,6.438692659E-2,1.809236594E-2,1.041871388E-1
8.663626417E0,-1.344444156E-1,1.198300347E-1,1.089972351E-2,1.804254474E-1
8.673661417E0,-9.955595434E-2,4.015490785E-2,-1.986111887E-2,1.091708235E-1
8.683696417E0,-9.297490120E-1,-2.167041302E0,5.215395242E-2,2.358648186E0
8.693730417E0,-1.160365701E0,-1.651095867E0,2.317926884E-1,2.031328130E0
8.703765417E0,-1.034466147E0,-1.556884311E-2,3.161656559E-1,1.081814827E0
8.713800417E0,-8.248558044E-1,7.953767776E-1,2.419214994E-1,1.171126521E0
8.723835417E0,-6.823689938E-1,5.331586003E-1,1.956867874E-1,8.877943768E-1
8.733870417E0,-4.769127369E-1,2.650065422E-1,1.711982191E-1,5.718243229E-1
8.743905417E0,-2.604870498E-1,1.952776611E-1,1.695096046E-1,3.670427415E-1
8.753940417E0,-6.778609939E-3,5.271791220E-1,7.142885029E-2,5.320393377E-1
8.763975417E0,2.066014856E-1,1.043057561E0,-1.798241585E-2,1.063473844E0
8.774010417E0,3.670798242E-1,1.635254860E0,-1.611873694E-2,1.676026810E0
8.784044417E0,4.453334510E-1,2.055829525E0,2.476955205E-2,2.103656448E0
8.794079417E0,4.389362633E-1,2.158714771E0,2.016467974E-2,2.202980055E0
8.804114417E0,2.787498236E-1,1.739062905E0,-6.253643334E-2,1.762371147E0
8.814149417E0,4.455595091E-2,1.171779513E0,-2.512453496E-1,1.199240045E0
8.824184417E0,-3.997191191E-1,1.343635559E0,-2.189395018E-2,1.402002580E0
8.834219417E0,-6.397047639E-1,8.334046602E-1,6.409042478E-1,1.230668017E0
8.844254417E0,-5.634884238E-1,3.206503093E-1,9.150549769E-1,1.121455053E0
8.854289417E0,-5.335089564E-1,4.392206073E-1,1.290165305E0,1.463582271E0
8.864323417E0,-3.809837103E-1,5.632846355E-1,1.717346311E0,1.847083246E0
8.874358417E0,1.227071583E-1,1.031593561E0,1.098203659E0,1.511718757E0
8.884393417E0,5.434039235E-1,1.048870683E0,5.072004795E-1,1.285562079E0
8.894428417E0,4.726482630E-1,4.465544820E-1,3.137891889E-1,7.219909563E-1
8.904463417E0,3.944225311E-1,5.546389222E-1,8.513264358E-2,6.858870418E-1
8.914498417E0,5.088154078E-1,7.754381895E-1,-1.945688576E-2,9.276723965E-1
8.924533417E0,7.099661827E-1,1.039508820E0,-2.867952175E-2,1.259147760E0
8.934568417E0,9.207593799E-1,1.534762025E0,3.923694417E-2,1.790204415E0
8.944603417E0,1.248281837E0,2.142767429E0,3.152023554E-1,2.499802457E0
8.954637417E0,1.619423270E0,2.937810659E0,7.541218996E-1,3.438308165E0
8.964672417E0,1.815792441E0,3.556370735E0,1.245231032E0,4.182759295E0
8.974707417E0,1.795714378E0,3.922923088E0,1.682873607E0,4.630980378E0
8.984742417E0,1.731754541E0,4.382359505E0,1.801742792E0,5.044831584E0
8.994777417E0,1.765324235E0,4.509186745E0,1.637311816E0,5.111743806E0
9.004812417E0,2.059604168E0,4.392691612E0,1.160099506E0,4.988340385E0
9.014847417E0,2.504354477E0,4.366010666E0,3.852408528E-1,5.047994750E0
9.024882417E0,2.830570459E0,4.196422577E0,-3.725348711E-1,5.075517097E0
9.034916417E0,3.022192240E0,3.597512722E0,-9.881845117E-1,4.801276117E0
9.044951417E0,3.195686340E0,3.018149853E0,-1.362772942E0,4.602041917E0
9.054986417E0,3.388442993E0,2.783169270E0,-1.538597584E0,4.647026966E0
9.065021417E0,3.436402559E0,2.588458300E0,-1.530235171E0,4.566245569E0
9.075056417E0,3.223954201E0,2.570877314E0,-1.481434822E0,4.381545387E0
9.085091417E0,2.828401089E0,2.631616116E0,-1.509649754E0,4.147806466E0
9.095126417E0,2.310823441E0,2.859740734E0,-1.627419829E0,4.020760791E0
9.105161417E0,1.725412488E0,3.126246452E0,-1.511654854E0,3.877572118E0
9.115196417E0,1.107589483E0,3.473528385E0,-1.282673359E0,3.864893899E0
9.125230417E0,6.019725800E-1,3.998903990E0,-1.048191786E0,4.177596214E0
9.135265417E0,2.400241792E-1,4.412549019E0,-8.405660987E-1,4.498305438E0
9.145300417E0,-2.014782839E-2,4.334533691E0,-5.690488219E-1,4.371773647E0
9.155335417E0,-2.933873534E-1,4.296658993E0,-2.942018211E-1,4.316701212E0
9.165370417E0,-7.342724800E-1,4.198727131E0,3.432222456E-2,4.262586493E0
9.175405417E0,-1.248340368E0,3.969508410E0,3.759796917E-1,4.178122954E0
9.185440417E0,-1.734352469E0,3.819535971E0,6.360672116E-1,4.242807445E0
9.195475417E0,-2.080876589E0,3.488023043E0,8.394544125E-1,4.147413150E0
9.205510417E0,-2.362347603E0,3.134580374E0,8.333837390E-1,4.012581310E0
9.215544417E0,-2.523447275E0,2.866263390E0,6.597749591E-1,3.875378042E0
9.225579417E0,-2.595331430E0,2.518363714E0,4.335876703E-1,3.642238227E0
9.235614417E0,-2.692059278E0,2.152504206E0,2.519020140E-1,3.455996548E0
9.245649417E0,-2.867694378E0,1.942459702E0,1.693389863E-1,3.467779756E0
9.255684417E0,-3.083818197E0,1.858207941E0,1.177215949E-1,3.602322834E0
9.265719417E0,-3.424048185E0,1.764619589E0,-1.030484773E-2,3.852024722E0
9.275754417E0,-3.875744581E0,1.700963855E0,-6.563547999E-2,4.233081869E0
9.285789417E0,-4.351285934E0,1.952946186E0,-2.787178382E-2,4.769535085E0
9.295823417E0,-4.901046753E0,2.606910467E0,5.700448900E-2,5.551530507E0
9.305858417E0,-5.337857723E0,3.382672548E0,1.046595573E-1,6.320296849E0
9.315893417E0,-5.364424706E0,3.929831505E0,2.712588198E-2,6.649914578E0
9.325928417E0,-4.633689404E0,4.812997818E0,-2.214449942E-1,6.684688726E0
9.335963417E0,-3.768114090E0,4.579596996E0,-5.101562142E-1,5.952449228E0
9.345998417E0,-3.019243717E0,3.881026745E0,-9.086547494E-1,5.000385452E0
9.356033417E0,-2.360622883E0,2.835740089E0,-1.275755405E0,3.904038179E0
9.366068417E0,-1.656715631E0,1.810487866E0,-1.441023469E0,2.845895577E0
9.376103417E0,-8.588751554E-1,1.486758828E0,-1.409762502E0,2.221609474E0
9.386137417E0,-2.211423218E-1,1.882012963E0,-1.348995447E0,2.326083712E0
9.396172417E0,2.046595812E-1,2.447067976E0,-1.327292085E0,2.791367318E0
9.406207417E0,4.296059608E-1,2.896456957E0,-1.319353580E0,3.211653477E0
9.416242417E0,6.235792041E-1,2.891906500E0,-1.264940977E0,3.217460163E0
9.426277417E0,9.765217900E-1,2.532000303E0,-1.141628265E0,2.944135771E0
9.436312417E0,1.561345220E0,2.047301769E0,-7.465656400E-1,2.680784155E0
9.446347417E0,2.383371592E0,1.854705691E0,-2.256390452E-1,3.028416471E0
9.456382417E0,3.102362633E0,2.662853718E0,1.710332036E-1,4.092028370E0
9.466416417E0,3.735468149E0,4.169283390E0,5.573049653E-3,5.597917232E0
9.476451417E0,4.343700886E0,4.989614010E0,-4.766990542E-1,6.632588284E0
9.486486417E0,4.693924427E0,4.940487862E0,-8.697839975E-1,6.870070672E0
9.496521417E0,5.057172775E0,4.362465858E0,-9.496991038E-1,6.745964218E0
9.506556417E0,5.657212734E0,3.424017429E0,-9.234859347E-1,6.676883820E0
9.516591417E0,6.442955017E0,1.809646606E0,-8.894680738E-1,6.751121658E0
9.526626417E0,7.130527973E0,6.420093775E-1,-3.737507164E-1,7.169120923E0
9.536661417E0,6.914774418E0,3.187460899E-1,4.380782545E-1,6.935965461E0
9.546696417E0,5.366832256E0,6.151583791E-1,8.833693266E-1,5.473723565E0
9.556730417E0,2.758922100E0,9.374139309E-1,9.696040750E-1,3.070916491E0
9.566765417E0,-5.679193735E-1,1.192235708E0,9.783598185E-1,1.643516454E0
9.576800417E0,-3.783769608E0,1.437618852E0,1.128427505E0,4.202024398E0
9.586835417E0,-6.240562439E0,2.450770617E0,1.139619708E0,6.800707996E0
9.596870417E0,-7.480629921E0,3.277650118E0,1.024511218E0,8.231186886E0
9.606905417E0,-5.588645935E0,4.565309048E0,1.285748363E0,7.329949450E0
9.616940417E0,-2.264200687E0,4.717109203E0,1.486154675E0,5.439336330E0
9.626975417E0,9.087440372E-1,3.054735184E0,1.095086575E0,3.369931360E0
9.637009417E0,2.470721006E0,1.032999516E0,2.008966804E-1,2.685499910E0
9.647044417E0,2.785298109E0,-3.602170348E-1,-6.369057298E-1,2.879807420E0
9.657079417E0,2.365781307E0,-9.956493974E-1,-9.196181297E-1,2.726524605E0
9.667114417E0,1.502863169E0,-8.354353905E-2,-6.026154757E-1,1.621333599E0
9.677149417E0,3.952390254E-1,1.026542187E0,1.852532774E-1,1.115491607E0
9.687184417E0,-5.798475146E-1,1.839186072E0,1.030764341E0,2.186619234E0
9.697219417E0,-1.134512067E0,2.483292341E0,1.591455698E0,3.160156597E0
9.707254417E0,-1.145607352E0,2.496426821E0,1.810916424E0,3.289981971E0
9.717289417E0,-7.082803249E-1,1.819861650E0,1.702416301E0,2.590710078E0
9.727323417E0,-1.909191757E-1,1.048940182E0,1.484914660E0,1.828030959E0
9.737358417E0,5.748664960E-2,5.260043740E-1,1.325145245E0,1.426883049E0
9.747393417E0,1.035415754E-1,3.452787995E-1,1.181098461E0,1.234881323E0
9.757428417E0,1.318547130E-1,5.690625906E-1,1.055936813E0,1.206739595E0
9.767463417E0,9.857682884E-2,4.602711499E-1,9.505116940E-1,1.060678746E0
9.777498417E0,1.492197663E-1,3.306173086E-1,8.849875331E-1,9.564398973E-1
9.787533417E0,2.354736030E-1,3.064500391E-1,8.659154177E-1,9.482451976E-1
9.797568583E0,3.129729331E-1,4.783866405E-1,7.908880711E-1,9.758636050E-1
9.807602583E0,3.666527569E-1,5.730814934E-1,6.792539358E-1,9.613753437E-1
9.817637583E0,4.204869568E-1,4.501523376E-1,5.520938635E-1,8.271964954E-1
9.827672583E0,5.794650912E-1,4.155399501E-1,4.102252424E-1,8.226408643E-1
9.837707583E0,8.407949805E-1,5.084570646E-1,3.088392317E-1,1.029974008E0
9.847742583E0,1.072158694E0,5.444366336E-1,1.921967715E-1,1.217733597E0
9.857777583E0,1.215327621E0,5.465563536E-1,1.016923636E-1,1.336445438E0
9.867812583E0,1.253402233E0,6.447976232E-1,5.558866262E-2,1.410627957E0
9.877847583E0,1.225607157E0,6.871088147E-1,2.441955730E-2,1.405285644E0
9.887881583E0,1.180540800E0,6.186544895E-1,3.443359584E-2,1.333265026E0
9.897916583E0,1.160756469E0,5.557146668E-1,1.448101699E-1,1.295046083E0
9.907951583E0,1.118103504E0,4.543299973E-1,2.955608070E-1,1.242548745E0
9.917986583E0,1.085460305E0,5.530059934E-1,3.795259893E-1,1.275962256E0
9.928021583E0,1.049002528E0,8.236961961E-1,3.128519952E-1,1.369948210E0
9.938056583E0,1.070852995E0,7.701967955E-1,1.901345998E-1,1.332696667E0
9.948091583E0,1.142425537E0,3.099892437E-1,8.130782098E-2,1.186524505E0
9.958126583E0,1.167823792E0,-9.339977056E-2,1.088212524E-2,1.171603323E0
9.968161583E0,1.038875341E0,-3.258246779E-1,1.883461140E-2,1.088934543E0
9.978195583E0,8.130936027E-1,-1.715078056E-1,1.948548853E-2,8.312134613E-1
9.988230583E0,5.519778132E-1,3.591572642E-1,-5.056124926E-2,6.604770145E-1
9.998265583E0,4.109194875E-1,7.338155508E-1,-2.166250497E-1,8.684851754E-1
1.000830058E1,5.071598291E-1,5.601568222E-1,-3.955480158E-1,8.529038578E-1
1.001833558E1,6.856901646E-1,1.379547268E-1,-5.044577122E-1,8.623688838E-1
1.002837058E1,8.033688664E-1,-8.835077286E-2,-4.733400643E-1,9.366206335E-1
1.003840558E1,8.552536368E-1,-2.476301044E-2,-3.609807491E-1,9.286436837E-1
1.004844058E1,8.485866189E-1,1.503145695E-1,-2.656778395E-1,9.018195130E-1
1.005847558E1,7.563597560E-1,4.267339110E-1,-2.762010694E-1,9.113006869E-1
1.006850958E1,6.401779652E-1,6.995842457E-1,-2.902496755E-1,9.917110557E-1
1.007854458E1,6.489815712E-1,8.284279704E-1,-3.469625115E-1,1.108085270E0
1.008857958E1,8.154745698E-1,5.095331669E-1,-4.154735208E-1,1.047492753E0
1.009861458E1,9.556548595E-1,6.230055913E-2,-4.904255271E-1,1.075952958E0
1.010864958E1,9.362022281E-1,-3.148193657E-1,-4.964502156E-1,1.105463098E0
1.011868458E1,6.733196974E-1,-5.269747972E-1,-4.046207070E-1,9.459279932E-1
1.012871958E1,2.634502649E-1,-3.559255004E-1,-3.600478470E-1,5.707218728E-1
1.013875458E1,5.093132332E-2,1.107532755E-1,-3.623464406E-1,3.823025382E-1
1.014878858E1,2.665800750E-1,5.782273412E-1,-3.357330263E-1,7.198114054E-1
1.015882358E1,9.018760920E-1,7.637401819E-1,-2.803347409E-1,1.214605746E0
1.016885858E1,1.693687797E0,3.941341043E-1,-2.599087358E-1,1.758258398E0
1.017889358E1,2.197236061E0,-3.663485944E-1,-3.625637293E-1,2.256880604E0
1.018892858E1,2.266364098E0,-1.027709723E0,-4.921815693E-1,2.536697892E0
1.019896358E1,1.954938173E0,-1.026490808E0,-4.858874381E-1,2.260874442E0
1.020899858E1,1.334969640E0,-5.313211083E-1,-4.230277538E-1,1.497797897E0
1.021903358E1,6.264702082E-1,1.151788235E-1,-4.334937334E-1,7.704854963E-1
1.022906858E1,1.232796386E-1,6.378285289E-1,-4.967615604E-1,8.177989664E-1
1.023910258E1,-6.964880228E-2,7.805713415E-1,-4.879350364E-1,9.231593441E-1
1.024913758E1,-5.833650753E-2,1.803636998E-1,-3.413634002E-1,3.904653420E-1
1.025917258E1,-1.052299812E-1,-5.874959826E-1,-2.345767766E-1,6.412886579E-1
1.026920758E1,-3.548622131E-1,-1.080561042E0,-1.679009497E-1,1.149665205E0
1.027924258E1,-6.217620969E-1,-1.255794644E0,-4.527808353E-2,1.402019400E0
1.028927758E1,-6.703848243E-1,-1.045399547E0,4.662970081E-2,1.242759170E0
1.029931258E1,-5.057215691E-1,-7.419532537E-1,8.361914009E-2,9.017988117E-1
1.030934758E1,-2.601616085E-1,-6.912106276E-1,1.339874417E-1,7.506056413E-1
1.031938158E1,-1.260889918E-1,-7.779793143E-1,1.709489226E-1,8.064575510E-1
1.032941658E1,-2.159990817E-1,-1.083510041E0,1.803276539E-1,1.119449720E0
1.033945158E1,-3.405508399E-1,-1.438222051E0,1.012192518E-1,1.481452962E0
1.034948658E1,-2.930110693E-1,-1.686796427E0,7.956277579E-2,1.713904288E0
1.035952158E1,-1.495680772E-2,-1.665488720E0,7.664208859E-2,1.667318324E0
1.036955658E1,3.394811153E-1,-1.506857157E0,2.305451408E-2,1.544796889E0
1.037959158E1,6.674096584E-1,-1.116272092E0,-9.192107245E-3,1.300608907E0
1.038962658E1,8.863129020E-1,-6.801017523E-1,-4.983627796E-2,1.118290038E0
1.039966058E1,1.031547785E0,-3.739668727E-1,-1.764173955E-1,1.111334851E0
1.040969558E1,1.087864280E0,-1.948461384E-1,-3.143610954E-1,1.149015495E0
1.041973058E1,9.848088026E-1,-2.912112772E-1,-4.206518531E-1,1.109774917E0
1.042976558E1,8.398064971E-1,-4.848013520E-1,-4.941556752E-1,1.088346055E0
1.043980058E1,6.455006599E-1,-3.799636066E-1,-4.609537721E-1,8.795008950E-1
1.044983558E1,3.292426467E-1,-1.223200113E-1,-2.491016537E-1,4.305978860E-1
1.045987058E1,-1.276356876E-1,-9.040601552E-2,-3.840088099E-2,1.610550963E-1
1.046990558E1,-7.588444948E-1,-2.000206560E-1,-2.221045643E-2,7.850774067E-1
1.047994058E1,-1.393381000E0,-3.985680938E-1,-3.536487743E-2,1.449695765E0
1.048997458E1,-1.870004296E0,-6.514695883E-1,-1.210662648E-1,1.983931887E0
1.050000958E1,-2.068889141E0,-6.755235195E-1,-2.675840557E-1,2.192768919E0
1.051004458E1,-1.996337891E0,-5.028666854E-1,-2.785843015E-1,2.077462175E0
1.052007958E1,-1.758301020E0,-3.142421842E-1,-2.143768072E-1,1.798979722E0
1.053011458E1,-1.511428356E0,4.713963345E-2,-1.199098676E-1,1.516910082E0
1.054014958E1,-1.401537061E0,2.824741304E-1,4.657338560E-2,1.430477839E0
1.055018458E1,-1.385612965E0,2.405210733E-1,1.527296603E-1,1.414602426E0
1.056021958E1,-1.375195384E0,8.149307966E-2,1.829141825E-1,1.389698192E0
1.057025458E1,-1.243500113E0,-1.305469126E-1,2.235041708E-1,1.270153197E0
1.058028858E1,-9.184970260E-1,-3.486944139E-1,2.289860249E-1,1.008790950E0
1.059032358E1,-4.486392140E-1,-6.840823889E-1,2.555218637E-1,8.570515049E-1
1.060035858E1,2.161590755E-2,-8.684311509E-1,1.928273141E-1,8.898439663E-1
1.061039358E1,4.277521372E-1,-7.126446962E-1,3.481134027E-2,8.318931322E-1
1.062042858E1,7.965264320E-1,-4.213454723E-1,-6.782928854E-2,9.036521324E-1
1.063046358E1,1.132163405E0,-1.092786342E-1,-1.092037857E-1,1.142655356E0
1.064049858E1,1.369540572E0,2.045709044E-1,-1.531493962E-1,1.393178155E0
1.065053358E1,1.397854209E0,3.588129282E-1,-1.780689657E-1,1.454115423E0
1.066056758E1,1.223686934E0,4.687668681E-1,-1.805904508E-1,1.322786830E0
1.067060258E1,8.832389116E-1,8.006925583E-1,-1.973407120E-1,1.208372006E0
1.068063758E1,4.316725433E-1,1.050346613E0,-2.067025155E-1,1.154250892E0
1.069067258E1,3.770311549E-2,1.136024237E0,-1.125245318E-1,1.142205919E0
1.070070758E1,-2.220855802E-1,1.127760649E0,8.384044282E-3,1.149450468E0
1.071074258E1,-3.353787661E-1,9.575455785E-1,1.571098268E-1,1.026672270E0
1.072077758E1,-3.518208861E-1,8.097897172E-1,2.607134581E-1,9.206024273E-1
1.073081258E1,-3.768498003E-1,9.136438966E-1,2.930014729E-1,1.030830153E0
1.074084758E1,-4.000914693E-1,9.572795033E-1,2.989957035E-1,1.079747962E0
1.075088158E1,-3.986962140E-1,1.005249858E0,2.201441228E-1,1.103607440E0
1.076091658E1,-4.170829356E-1,1.008088470E0,1.230785623E-1,1.097883814E0
1.077095158E1,-4.588589966E-1,6.840518117E-1,1.414207518E-1,8.357501355E-1
1.078098658E1,-6.024968624E-1,1.308975220E-1,2.196279317E-1,6.545021458E-1
1.079102146E1,-8.016706109E-1,-5.145706609E-2,2.631466985E-1,8.453222953E-1
1.080105646E1,-9.343162775E-1,1.634046435E-1,2.074415982E-1,9.709170925E-1
1.081109146E1,-9.959679246E-1,4.154861569E-1,1.412942708E-1,1.088368010E0
1.082112646E1,-1.073369265E0,6.301678419E-1,1.253454089E-1,1.250977441E0
1.083116046E1,-1.155948043E0,5.931652784E-1,1.723492891E-1,1.310635419E0
1.084119546E1,-1.250030637E0,3.793510497E-1,2.668632865E-1,1.333304101E0
1.085123046E1,-1.858892798E0,1.502573490E0,9.441325665E-1,2.569940823E0
1.086126546E1,-2.032415390E0,2.251182079E0,7.281288505E-1,3.119087157E0
1.087130046E1,-2.483998299E0,3.306476831E0,5.549866557E-1,4.172654643E0
1.088133546E1,-2.943078518E0,3.497052670E0,3.093740046E-1,4.581135319E0
1.089137046E1,-2.991812468E0,3.259638548E0,-3.062787354E-1,4.435086467E0
1.090140546E1,-2.849019051E0,3.005990744E0,-9.998117089E-1,4.260576646E0
1.091144046E1,-2.463195562E0,1.919121623E0,-1.689736724E0,3.550432421E0
1.092147446E1,-1.313645840E0,-5.420114994E-1,-1.664272070E0,2.188434002E0
1.093150946E1,-4.888095558E-1,-1.278564215E0,-1.226906061E0,1.838194689E0
1.094154446E1,3.382811844E-1,-9.886834025E-1,-5.668184757E-1,1.188786026E0
1.095157946E1,8.437409401E-1,4.032068700E-2,-8.983583748E-2,8.494674858E-1
1.096161446E1,1.024997592E0,9.601956606E-1,1.222130433E-1,1.409798496E0
1.097164946E1,9.851495624E-1,1.390263081E0,1.595389992E-1,1.711374823E0
1.098168446E1,1.011976123E0,1.788791537E0,3.545854390E-1,2.085569867E0
1.099171946E1,1.054232478E0,1.986459494E0,5.160166025E-1,2.307314580E0
1.100175346E1,1.048305988E0,1.272747397E0,6.673454046E-1,1.778814569E0
1.101178846E1,9.620628953E-1,-9.434288740E-2,8.737584352E-1,1.303042362E0
1.102182346E1,9.815708399E-1,-9.141815901E-1,1.033088207E0,1.693068379E0
1.103185846E1,1.102663994E0,-8.349884152E-1,1.098726869E0,1.766429809E0
1.104189346E1,1.134827733E0,-5.130716562E-1,1.172464490E0,1.710482239E0
1.105192846E1,1.013115406E0,-4.579741657E-1,1.253765702E0,1.675730169E0
1.106196346E1,8.359987140E-1,-7.281257510E-1,1.314966440E0,1.719941190E0
1.107199846E1,6.347691417E-1,-1.147187114E0,1.535161495E0,2.018834058E0
1.108203346E1,3.568061888E-1,-1.559672952E0,1.983656168E0,2.548486250E0
1.109206746E1,-3.588905931E-2,-1.704228878E0,2.605204344E0,3.113321982E0
1.110210246E1,-5.860576630E-1,-1.519235849E0,3.091094732E0,3.493766992E0
1.111213746E1,-1.219987512E0,-8.882727027E-1,3.023462057E0,3.379159767E0
1.112217246E1,-1.586564183E0,-1.909258813E-1,2.479131460E0,2.949530708E0
1.113220746E1,-1.828157306E0,1.240155548E-1,1.860648155E0,2.611426918E0
1.114224246E1,-1.951310635E0,2.974006236E-1,1.468671083E0,2.460295729E0
1.115227746E1,-1.911142588E0,2.717401683E-1,1.317105174E0,2.336894253E0
1.116231246E1,-1.823402405E0,1.462650597E-1,1.247767925E0,2.214297765E0
1.117234746E1,-1.826642990E0,1.902563423E-1,1.116231680E0,2.149138258E0
1.118238146E1,-1.817215681E0,3.192502856E-1,1.019563794E0,2.108009466E0
1.119241646E1,-1.743185043E0,1.997686327E-1,9.537039399E-1,1.997036005E0
1.120245146E1,-1.645316005E0,2.389389426E-1,7.548376918E-1,1.825907039E0
1.121248646E1,-1.501377583E0,4.675089717E-1,3.978443742E-1,1.622029417E0
1.122252146E1,-1.336262465E0,8.383643031E-1,-7.774773240E-2,1.579397603E0
1.123255646E1,-1.271992683E0,1.201207161E0,-3.901949227E-1,1.792516697E0
1.124259146E1,-1.231153131E0,1.421377897E0,-4.721550345E-1,1.938809824E0
1.125262646E1,-1.245305181E0,1.344351649E0,-4.945812523E-1,1.898071907E0
1.126266046E1,-1.317453623E0,9.136072397E-1,-5.792277455E-1,1.704660382E0
1.127269546E1,-1.331890583E0,2.937190235E-1,-6.752739549E-1,1.521906142E0
1.128273046E1,-1.286379099E0,-1.951097846E-1,-6.927424073E-1,1.474018676E0
1.129276546E1,-1.226572156E0,-4.300096631E-1,-6.046053767E-1,1.433504526E0
1.130280046E1,-1.122083545E0,-5.579846501E-1,-4.560209513E-1,1.333556695E0
1.131283546E1,-9.621961117E-1,-4.991829395E-1,-3.364398777E-1,1.134987558E0
1.132287046E1,-8.695607185E-1,-5.259544253E-1,-2.766194344E-1,1.053224673E0
1.133290546E1,-8.391749263E-1,-5.761153698E-1,-2.333653122E-1,1.044309746E0
1.134294046E1,-8.063514829E-1,-3.598406613E-1,-2.255974114E-1,9.113628298E-1
1.135297446E1,-8.012116551E-1,5.235113204E-2,-2.512969077E-1,8.413268646E-1
1.136300946E1,-8.525092006E-1,6.221945882E-1,-2.366780192E-1,1.081625872E0
1.137304446E1,-8.969285488E-1,1.218071461E0,-1.719515771E-1,1.522414612E0
1.138307946E1,-1.033231735E0,1.370898247E0,-6.763716787E-2,1.717994356E0
1.139311446E1,-1.226437092E0,1.046203256E0,-7.029300928E-2,1.613576865E0
1.140314946E1,-1.386170864E0,7.620096207E-1,-1.562177688E-1,1.589506942E0
1.141318446E1,-1.500534296E0,7.878710628E-1,-2.794773579E-1,1.717687858E0
1.142321946E1,-1.562712431E0,1.003236055E0,-3.754795194E-1,1.894607504E0
1.143325346E1,-1.585218310E0,1.404256225E0,-4.740122259E-1,2.170147513E0
1.144328846E1,-1.485387802E0,1.457208395E0,-5.135852098E-1,2.143269231E0
1.145332346E1,-1.249982119E0,1.372889996E0,-5.448384285E-1,1.934975749E0
1.146335846E1,-9.846588373E-1,1.352283239E0,-5.196439028E-1,1.751642878E0
1.147339346E1,-7.889066339E-1,1.430533409E0,-4.001775086E-1,1.681945763E0
1.148342846E1,-7.317243218E-1,1.390129805E0,-2.453109920E-1,1.589987056E0
1.149346346E1,-8.487232924E-1,1.197609186E0,-1.899585277E-1,1.480095683E0
1.150349846E1,-1.151654363E0,9.573906660E-1,-2.315762788E-1,1.515431368E0
1.151353346E1,-1.547308326E0,6.574517488E-1,-3.629164994E-1,1.719916929E0
1.152356746E1,-1.936323524E0,3.685965240E-1,-4.896629751E-1,2.031005173E0
1.153360246E1,-2.354065180E0,2.511231303E-1,-5.394655466E-1,2.428108065E0
1.154363746E1,-2.831387520E0,-2.643871494E-2,-4.876343608E-1,2.873193617E0
1.155367246E1,-3.207096100E0,-4.119967818E-1,-4.428306818E-1,3.263633827E0
1.156370746E1,-3.380539417E0,-5.500428677E-1,-3.862640560E-1,3.446707680E0
1.157374246E1,-3.409520388E0,-6.384287477E-1,-2.998605072E-1,3.481714644E0
1.158377746E1,-3.341407061E0,-8.996283412E-1,-1.106541082E-1,3.462163576E0
1.159381246E1,-3.118475914E0,-1.119171977E0,1.714185029E-1,3.317653123E0
1.160384746E1,-2.793790817E0,-1.066053391E0,4.993777573E-1,3.031685193E0
1.161388146E1,-2.469546556E0,-9.595046043E-1,7.826621532E-1,2.762583813E0
1.162391646E1,-2.148907185E0,-1.026717544E0,9.058511853E-1,2.548041870E0
1.163395146E1,-1.768034935E0,-1.110980749E0,8.902892470E-1,2.269986938E0
1.164398646E1,-1.372433066E0,-1.009009361E0,7.601283193E-1,1.865333073E0
1.165402146E1,-1.112662792E0,-8.310664892E-1,6.112278700E-1,1.517329729E0
1.166405646E1,-1.105599284E0,-7.347719073E-1,5.552788377E-1,1.438948964E0
1.167409146E1,-1.148412824E0,-5.782351494E-1,5.766412616E-1,1.409156856E0
1.168412646E1,-1.093912244E0,-3.597568870E-1,5.802639723E-1,1.289486445E0
1.169416046E1,-9.935745597E-1,-3.105211556E-1,5.129252672E-1,1.160476679E0
1.170419546E1,-8.937427402E-1,-2.422007024E-1,3.461986184E-1,9.885801683E-1
1.171423046E1,-7.896403670E-1,-1.197682992E-1,1.208349541E-1,8.077607572E-1
1.172426546E1,-6.808827519E-1,4.189276323E-2,-1.064583883E-1,6.904271967E-1
1.173430046E1,-5.889648199E-1,1.561545283E-1,-2.932510376E-1,6.762100020E-1
1.174433546E1,-5.010461807E-1,1.502279341E-1,-4.367645383E-1,6.814535709E-1
1.175437046E1,-4.124474823E-1,5.318266898E-2,-4.860176146E-1,6.396518144E-1
1.176440546E1,-3.716992438E-1,-4.455694184E-2,-4.343025088E-1,5.733797329E-1
1.177444046E1,-3.897389770E-1,-8.627209067E-2,-3.531607985E-1,5.329745711E-1
1.178447446E1,-4.471276999E-1,5.275903642E-2,-2.570755482E-1,5.184539838E-1
1.179450871E1,-5.268890858E-1,2.582424581E-1,-2.113226354E-1,6.236654008E-1
1.180454371E1,-6.325042248E-1,4.994574487E-1,-1.960600615E-1,8.294328696E-1
1.181457871E1,-7.297956347E-1,7.052878141E-1,-2.126449794E-1,1.036942841E0
1.182461371E1,-7.551087141E-1,8.214389086E-1,-2.468823045E-1,1.142760659E0
1.183464871E1,-7.388598323E-1,7.394655943E-1,-2.799118161E-1,1.082161652E0
1.184468371E1,-6.890896559E-1,5.918173194E-1,-2.575687170E-1,9.441577926E-1
1.185471871E1,-6.205034256E-1,6.188837290E-1,-1.582410783E-1,8.905514079E-1
1.186475371E1,-5.761418343E-1,7.273330092E-1,-2.124807797E-2,9.281186348E-1
1.187478771E1,-5.851116180E-1,7.954477668E-1,7.407261431E-2,9.902421459E-1
1.188482271E1,-6.041713357E-1,8.011653423E-1,1.198923066E-1,1.010575615E0
1.189485771E1,-5.336767435E-1,7.536193132E-1,1.227342337E-1,9.315667598E-1
1.190489271E1,-3.447491527E-1,6.717220545E-1,1.103654504E-1,7.630485105E-1
1.191492771E1,-6.583636254E-2,6.623703241E-1,1.122019291E-1,6.750245520E-1
1.192496271E1,1.989870369E-1,6.695169210E-1,8.877436817E-2,7.040807034E-1
1.193499771E1,3.856616914E-1,6.219319105E-1,6.406385452E-2,7.346008569E-1
1.194503271E1,4.903678596E-1,7.153372765E-1,5.124925449E-2,8.687891245E-1
1.195506771E1,5.059685111E-1,8.547238708E-1,3.539973497E-2,9.938863973E-1
1.196510171E1,6.364746094E-1,9.373918772E-1,2.574764006E-2,1.133343020E0
1.197513671E1,1.009844780E0,8.357459307E-1,3.448808193E-2,1.311276923E0
1.198517171E1,1.542182446E0,7.243589759E-1,9.659139812E-2,1.706561607E0
1.199520671E1,2.101799011E0,6.977829337E-1,2.584148645E-1,2.229627401E0
1.200524171E1,2.617308140E0,6.586672664E-1,4.524120390E-1,2.736571051E0
1.201527671E1,3.076524258E0,6.041002870E-1,6.591557860E-1,3.203814136E0
1.202531171E1,3.592404842E0,2.964727283E-1,8.489230871E-1,3.703233592E0
1.203534671E1,4.404346466E0,-9.432135522E-2,9.133079648E-1,4.499032757E0
1.204538171E1,5.528436184E0,-4.488120675E-1,8.180088997E-1,5.606619077E0
1.205541571E1,6.927809715E0,-6.108864546E-1,6.229323745E-1,6.982533527E0
1.206545071E1,8.528800011E0,-5.488020182E-1,4.907689989E-1,8.560517945E0
1.207548571E1,1.033484650E1,-7.189900875E-1,5.140307546E-1,1.037257087E1
1.208552071E1,1.237560081E1,-7.623195052E-1,5.553060174E-1,1.241148627E1
1.209555571E1,1.450367641E1,-1.000697136E0,3.617483974E-1,1.454265747E1
1.210559071E1,1.680957031E1,-1.121774554E0,-2.783192098E-1,1.684925796E1
1.211562571E1,1.965877914E1,-9.873632789E-1,-9.429194331E-1,1.970613054E1
1.212566071E1,2.277429390E1,-2.467709303E0,-1.548216820E0,2.295985686E1
1.213569571E1,2.341177177E1,-4.043365955E0,-2.339355946E0,2.387325810E1
1.214572971E1,2.326190758E1,-4.592954636E0,-2.860232115E0,2.388289145E1
1.215576471E1,2.308566475E1,-5.257544518E0,-3.460182190E0,2.392827934E1
1.216579971E1,2.286438370E1,-6.057587624E0,-4.153998375E0,2.401520585E1
1.217583471E1,2.257580948E1,-7.004049778E0,-4.965616226E0,2.415328614E1
1.218586971E1,2.217186546E1,-8.108843803E0,-5.900062084E0,2.433424950E1
1.219590471E1,2.160783005E1,-9.382362366E0,-6.968895435E0,2.456608529E1
1.220593971E1,2.083523941E1,-1.084022808E1,-8.183269501E0,2.487134186E1
1.221597471E1,1.979439926E1,-1.246743870E1,-9.541428566E0,2.526448355E1
1.222600871E1,1.839735985E1,-1.423830605E1,-1.101806641E1,2.574082353E1
1.223604371E1,1.658298683E1,-1.608456421E1,-1.256484985E1,2.629798680E1
1.224607871E1,1.428445911E1,-1.794556999E1,-1.411549282E1,2.693206996E1
1.225611371E1,1.145763302E1,-1.970183182E1,-1.557015991E1,2.760198201E1
1.226614871E1,8.117645264E0,-2.118375015E1,-1.679337311E1,2.822525138E1
1.227618371E1,4.351680756E0,-2.220640755E1,-1.764657402E1,2.869604914E1
1.228621871E1,3.279034197E-1,-2.260990906E1,-1.802207565E1,2.891557918E1
1.229625371E1,-3.720661879E0,-2.231749153E1,-1.786631584E1,2.882913448E1
1.230628871E1,-7.553772449E0,-2.136421394E1,-1.719667816E1,2.844670201E1
1.231632271E1,-1.097873497E1,-1.987429428E1,-1.611046219E1,2.784002850E1
1.232635771E1,-1.388818073E1,-1.802779961E1,-1.474581432E1,2.711682435E1
1.233639271E1,-1.625634003E1,-1.600928497E1,-1.323575974E1,2.637709484E1
1.234642771E1,-1.812185478E1,-1.396057224E1,-1.170805454E1,2.569781585E1
1.235646271E1,-1.953861618E1,-1.199296093E1,-1.024307823E1,2.510994396E1
1.236649771E1,-2.058439636E1,-1.016813946E1,-8.896470070E0,2.462225849E1
1.237653271E1,-2.133852959E1,-8.523152351E0,-7.697441578E0,2.423277899E1
1.238656771E1,-2.187238312E1,-7.056101799E0,-6.655048370E0,2.392654143E1
1.239660271E1,-2.224814034E1,-5.760627270E0,-5.762527943E0,2.369327548E1
1.240663671E1,-2.249549866E1,-4.612977505E0,-5.017038822E0,2.350526962E1
1.241667171E1,-2.266663742E1,-3.605685472E0,-4.407801151E0,2.337105326E1
1.242670671E1,-2.277606392E1,-2.704330921E0,-3.918061018E0,2.326829808E1
1.243674171E1,-2.284145737E1,-1.894157052E0,-3.538333416E0,2.319137359E1
1.244677671E1,-2.287098694E1,-1.146094322E0,-3.264445066E0,2.313119490E1
1.245681171E1,-2.287440491E1,-4.415668845E-1,-3.085595369E0,2.308580256E1
1.246684671E1,-2.285338593E1,2.321111262E-1,-2.999210835E0,2.305051820E1
1.247688171E1,-2.280488968E1,8.974682689E-1,-3.006071091E0,2.301966346E1
1.248691671E1,-2.273503113E1,1.575360775E0,-3.101045132E0,2.299956267E1
1.249695071E1,-2.264529419E1,2.273168087E0,-3.284302950E0,2.299485351E1
1.250698571E1,-2.252571487E1,3.018977642E0,-3.564504862E0,2.300495059E1
1.251702071E1,-2.237563896E1,3.826166868E0,-3.948309660E0,2.304122221E1
1.252705571E1,-2.217571259E1,4.716348648E0,-4.438019276E0,2.310199533E1
1.253709071E1,-2.191529274E1,5.708857059E0,-5.049545765E0,2.320278038E1
1.254712571E1,-2.155896759E1,6.821390629E0,-5.790126324E0,2.334193686E1
1.255716071E1,-2.108059502E1,8.066028595E0,-6.667769432E0,2.353532351E1
1.256719571E1,-2.044030762E1,9.461707115E0,-7.687417984E0,2.379971580E1
1.257722971E1,-1.957213402E1,1.101094723E1,-8.850480080E0,2.413794495E1
1.258726471E1,-1.842509651E1,1.270919895E1,-1.014334965E1,2.457428456E1
1.259729971E1,-1.692157745E1,1.451208115E1,-1.153884697E1,2.510149940E1
1.260733471E1,-1.500103760E1,1.635432625E1,-1.298694038E1,2.571294881E1
1.261736971E1,-1.260215950E1,1.813406944E1,-1.440048981E1,2.636347863E1
1.262740471E1,-9.716814041E0,1.970982361E1,-1.567683220E1,2.699364165E1
1.263743971E1,-6.395119667E0,2.092727470E1,-1.669207382E1,2.752224029E1
1.264747471E1,-2.747124910E0,2.163220406E1,-1.732502747E1,2.785059289E1
1.265750971E1,1.058425546E0,2.173703957E1,-1.749451447E1,2.792270027E1
1.266754371E1,4.800187111E0,2.121828079E1,-1.718155861E1,2.772116867E1
1.267757871E1,8.294755936E0,2.015016747E1,-1.643684769E1,2.729472819E1
1.268761371E1,1.138012981E1,1.866433144E1,-1.534937477E1,2.671082044E1
1.269764871E1,1.399305344E1,1.691978455E1,-1.404065228E1,2.606193719E1
1.270768371E1,1.610565758E1,1.506043434E1,-1.263511276E1,2.541367669E1
1.271771871E1,1.775759506E1,1.320333004E1,-1.121754360E1,2.480913926E1
1.272775371E1,1.901354027E1,1.142311287E1,-9.869362831E0,2.427769643E1
1.273778871E1,1.994537926E1,9.762619972E0,-8.625035286E0,2.382263915E1
1.274782371E1,2.062428093E1,8.244819641E0,-7.511011124E0,2.344681861E1
1.275785771E1,2.109506226E1,6.887743950E0,-6.532632828E0,2.313261680E1
1.276789271E1,2.141634941E1,5.666724205E0,-5.692582130E0,2.287306881E1
1.277792771E1,2.163949776E1,4.571488380E0,-4.984552383E0,2.267183565E1
1.278796271E1,2.178601646E1,3.586883068E0,-4.402600765E0,2.251397648E1
1.279799854E1,2.187286758E1,2.698142290E0,-3.940536737E0,2.238816960E1
1.280803354E1,2.193401337E1,1.896255255E0,-3.584252596E0,2.230568522E1
1.281806854E1,2.196964645E1,1.189613342E0,-3.322921276E0,2.225134493E1
1.282810354E1,2.197539902E1,5.560606718E-1,-3.147469759E0,2.220661909E1
1.283813854E1,2.195909119E1,-3.157829121E-2,-3.046329498E0,2.216941150E1
1.284817254E1,2.191962433E1,-5.901827216E-1,-3.024886847E0,2.213522502E1
1.285820754E1,2.185707092E1,-1.122779727E0,-3.073446512E0,2.210063929E1
1.286824254E1,2.177427673E1,-1.658244848E0,-3.181979656E0,2.206793823E1
1.287827754E1,2.167686272E1,-2.222185850E0,-3.363907337E0,2.204859088E1
1.288831254E1,2.154156494E1,-2.854760408E0,-3.620635271E0,2.202947291E1
1.289834754E1,2.138165474E1,-3.572998047E0,-3.966851234E0,2.203808937E1
1.290838254E1,2.117121887E1,-4.389722347E0,-4.403701782E0,2.206542001E1
1.291841754E1,2.090070343E1,-5.308751106E0,-4.942383766E0,2.212350333E1
1.292845254E1,2.055879021E1,-6.343594074E0,-5.599148273E0,2.223185782E1
1.293848654E1,2.012495232E1,-7.514477730E0,-6.377607822E0,2.240881440E1
1.294852154E1,1.958145332E1,-8.808900833E0,-7.283370495E0,2.267327797E1
1.295855654E1,1.886426735E1,-1.023192215E1,-8.319806099E0,2.301677621E1
1.296859154E1,1.790629196E1,-1.173316002E1,-9.482120514E0,2.341394767E1
1.297862654E1,1.665614510E1,-1.326568890E1,-1.073773098E1,2.384752687E1
1.298866154E1,1.507728863E1,-1.474432373E1,-1.204652596E1,2.428659100E1
1.299869654E1,1.312588120E1,-1.613318062E1,-1.334327030E1,2.471054707E1
1.300873154E1,1.077674294E1,-1.738364410E1,-1.454687023E1,2.509861957E1
1.301876654E1,8.056759834E0,-1.846237564E1,-1.556906605E1,2.545911450E1
1.302880054E1,5.030167580E0,-1.926602745E1,-1.632909203E1,2.575114844E1
1.303883554E1,1.789338827E0,-1.972480774E1,-1.676350594E1,2.594773410E1
1.304887054E1,-1.514267206E0,-1.976766968E1,-1.682780838E1,2.600440164E1
1.305890554E1,-4.727645874E0,-1.935925102E1,-1.650607491E1,2.587627764E1
1.306894054E1,-5.371600628E0,-1.810448265E1,-1.041130829E1,2.156436240E1
1.307897554E1,3.553153992E0,-9.720824242E0,4.822631836E0,1.141827943E1
1.308901054E1,1.304015732E1,-4.822838604E-1,6.656184673E0,1.464865506E1
1.309904554E1,1.792051888E1,-3.217039108E0,7.719398499E0,1.977582996E1
1.310907954E1,2.028347206E1,-7.447841644E0,8.136244774E0,2.308869990E1
1.311911454E1,2.090997124E1,-9.887124062E0,7.671776772E0,2.436879722E1
1.312914954E1,2.013595009E1,-1.087543678E1,6.487111568E0,2.378684989E1
1.313918454E1,1.830891418E1,-1.004745483E1,5.284114838E0,2.154273792E1
1.314921954E1,1.478991699E1,-6.646172523E0,4.116999626E0,1.672910457E1
1.315925454E1,1.094914818E1,-2.817413330E0,2.811416149E0,1.165013839E1
1.316928954E1,7.565939903E0,9.973605722E-2,1.504652858E0,7.714750425E0
1.317932454E1,5.132133484E0,1.689005136E0,6.816813946E-1,5.445752654E0
1.318935854E1,3.413766146E0,2.339652538E0,4.872977734E-1,4.167161194E0
1.319939354E1,2.247505188E0,2.429362297E0,5.415132046E-1,3.353552935E0
1.320942854E1,1.388080835E0,2.278242350E0,5.977138877E-1,2.733938277E0
1.321946354E1,7.232931256E-1,2.088003874E0,5.293291211E-1,2.272246122E0
1.322949854E1,1.768302768E-1,1.868962646E0,3.011665046E-1,1.901313120E0
1.323953354E1,-3.006058037E-1,1.636105657E0,-7.832030207E-2,1.665334693E0
1.324956854E1,-7.577832341E-1,1.349990368E0,-5.580693483E-1,1.645646019E0
1.325960354E1,-1.272495508E0,1.015907645E0,-1.061993122E0,1.944001686E0
1.326963854E1,-1.905918002E0,6.846477389E-1,-1.524006248E0,2.534533685E0
1.327967254E1,-2.712482929E0,3.783955872E-1,-1.857873201E0,3.309447038E0
1.328970754E1,-3.624049187E0,-5.168574862E-3,-2.082736492E0,4.179898386E0
1.329974254E1,-4.615403175E0,-5.470659733E-1,-2.239755869E0,5.159237735E0
1.330977754E1,-5.614477634E0,-1.276751637E0,-2.335581064E0,6.213484752E0
1.331981254E1,-6.434835434E0,-2.218701363E0,-2.317542553E0,7.190323100E0
1.332984754E1,-6.569122314E0,-3.148407459E0,-2.121361494E0,7.587226904E0
1.333988254E1,-5.977479458E0,-4.072473526E0,-1.730176926E0,7.436989544E0
1.334991754E1,-4.561591148E0,-4.562515736E0,-1.096280098E0,6.544195420E0
1.335995254E1,-2.203303576E0,-3.241792440E0,-2.463998795E-1,3.927400893E0
1.336998654E1,2.848021686E-3,-1.511426210E0,3.898412883E-1,1.560895106E0
1.338002154E1,1.168317676E0,-3.948328495E-1,5.333555937E-1,1.343624709E0
1.339005654E1,1.261728287E0,2.208985239E-1,3.325582445E-1,1.323385588E0
1.340009154E1,8.170250058E-1,4.694463611E-1,4.727972299E-2,9.434750226E-1
1.341012654E1,3.890984356E-1,3.320131302E-1,-6.579010934E-2,5.157117894E-1
1.342016154E1,1.367711872E-1,1.015834436E-1,-1.862122677E-2,1.713834990E-1
1.343019654E1,1.564155892E-2,-5.545970052E-2,6.396473199E-2,8.609252979E-2
1.344023154E1,-2.093821019E-2,-9.041875601E-2,8.916989714E-2,1.287059853E-1
1.345026554E1,-2.859186940E-2,-2.496837825E-2,1.251639985E-2,3.996967817E-2
1.346030054E1,-3.864880651E-2,2.684032172E-2,-4.639201611E-2,6.607837978E-2
1.347033554E1,-3.797289729E-2,5.026069283E-2,-2.397006378E-2,6.739912559E-2
1.348037054E1,-2.705701813E-2,5.096731707E-2,5.967400968E-3,5.801171877E-2
1.349040554E1,3.530984512E-3,6.433670409E-3,7.757843938E-3,1.067914365E-2
1.350044054E1,2.720913664E-2,-3.898135573E-2,5.306124804E-4,4.754119014E-2
1.351047554E1,2.038025856E-2,-3.228536993E-2,-1.468089875E-3,3.820805332E-2
1.352051054E1,1.476493664E-3,-6.870111451E-3,9.031172376E-4,7.084778446E-3
1.353054554E1,-8.622213267E-3,1.751405746E-2,3.479459323E-3,1.982905463E-2
1.354057954E1,-4.324994050E-3,1.874572597E-2,-1.965409378E-3,1.933832076E-2
1.355061454E1,5.150000099E-3,1.413873630E-3,-1.707082614E-3,5.606752243E-3
1.356064954E1,7.151342928E-3,-8.318865672E-3,-4.169589374E-6,1.097019823E-2
1.357068454E1,4.287646152E-3,-9.023805149E-3,3.867824853E-4,9.998128304E-3
1.358071954E1,1.999156550E-3,-2.061595209E-3,1.901198528E-3,3.444032166E-3
1.359075454E1,-2.022482920E-3,4.319604952E-3,-1.513240277E-3,5.003930479E-3
1.360078954E1,2.527782228E-3,2.721834462E-3,2.240541391E-3,4.337982429E-3
1.361082454E1,-2.762599615E-4,2.767374273E-3,-3.019785509E-4,2.797475823E-3
1.362085954E1,1.142950263E-3,-1.481026062E-3,-3.494322300E-6,1.870771421E-3
1.363089354E1,3.660702612E-3,-1.624570345E-3,-1.520430786E-3,4.283886342E-3
1.364092854E1,3.021785524E-4,-1.937632333E-3,-7.161000976E-4,2.087709339E-3
1.365096354E1,1.412983052E-3,-1.814594376E-3,-1.373101841E-3,2.678559785E-3
1.366099854E1,-3.620821517E-4,1.617300557E-3,-1.332092914E-3,2.126319851E-3
1.367103354E1,4.267461482E-4,1.364832977E-3,-5.379382055E-4,1.527828146E-3
1.368106854E1,-7.067457773E-5,7.981555536E-4,-1.084383344E-3,1.348307985E-3
1.369110354E1,-1.265102299E-3,-2.939324593E-3,1.175575191E-3,3.409118643E-3
1.370113854E1,-1.551671186E-3,-3.902873723E-4,-2.029484138E-3,2.584340065E-3
1.371117354E1,3.723518224E-3,3.047587350E-3,-2.379757934E-4,4.817572947E-3
1.372120754E1,5.394201726E-4,2.121960279E-5,-1.461610664E-3,1.558117494E-3
1.373124254E1,-1.660512062E-4,1.321907388E-3,-1.040831325E-3,1.690663181E-3
1.374127754E1,3.205498913E-3,-5.280647893E-4,1.937970403E-3,3.782830288E-3
1.375131254E1,-3.117378801E-4,-2.803203184E-3,-1.888459432E-3,3.394319906E-3
1.376134754E1,-6.658805069E-4,-2.960598795E-4,-1.185881672E-3,1.391892109E-3
1.377138254E1,1.383688301E-3,1.499176957E-3,4.183559213E-5,2.040557541E-3
1.378141754E1,6.746864528E-4,7.027711254E-4,-2.743834630E-3,2.911652029E-3
1.379145179E1,9.615089511E-4,1.946999924E-3,5.054883659E-4,2.229535076E-3
1.380148579E1,8.232202381E-4,1.129631419E-4,-3.517642035E-4,9.023249341E-4
1.381152079E1,1.806459390E-3,-2.211709972E-3,-5.048959865E-4,2.899978704E-3
1.382155579E1,7.089837454E-4,-6.347121671E-4,9.810933843E-4,1.366770542E-3
1.383159079E1,-1.122472109E-3,-1.479200553E-3,-2.048122697E-4,1.868134358E-3
1.384162579E1,8.009886369E-4,3.090102691E-4,7.059768541E-5,8.614256649E-4
1.385166079E1,1.388481935E-3,1.053630142E-3,-5.075745285E-4,1.815392646E-3
1.386169579E1,1.602345495E-3,2.518775407E-3,-1.361440052E-3,3.281045512E-3
1.387173079E1,8.015329367E-4,-3.945687786E-5,2.138196141E-4,8.305002837E-4
1.388176579E1,1.359709189E-3,2.362285741E-4,-1.429795288E-3,1.987190877E-3
1.389179979E1,-1.526998822E-4,-1.720340224E-4,-5.355058238E-4,5.828202520E-4
1.390183479E1,-6.687052082E-4,-2.122445730E-3,8.973460644E-4,2.399410864E-3
1.391186979E1,1.556898467E-3,1.633889042E-5,6.351037882E-5,1.558278975E-3
1.392190479E1,5.927868187E-7,9.025416803E-4,-4.959284561E-4,1.029818853E-3
1.393193979E1,7.002052153E-4,-5.363642704E-4,-3.510524984E-4,9.493217740E-4
1.394197479E1,-9.702326497E-4,-2.064166125E-3,3.617487673E-4,2.309327901E-3
1.395200979E1,1.180003514E-3,-1.919556526E-3,3.433729580E-4,2.279256575E-3
1.396204479E1,8.561054710E-4,3.563581966E-3,-2.684144070E-3,4.542759337E-3
1.397207879E1,1.522320090E-4,-9.834992234E-4,1.275443705E-3,1.617776855E-3
1.398211379E1,3.854543320E-4,-5.546479952E-4,1.107151154E-3,1.296916774E-3
1.399214879E1,1.254710136E-3,-1.509127906E-4,3.211847274E-3,3.451526489E-3
1.400218379E1,-1.991763711E-3,1.406775322E-3,-1.467274735E-3,2.845880292E-3
1.401221879E1,1.625341829E-3,1.123681199E-3,-1.410282915E-3,2.427610636E-3
1.402225379E1,-1.181142870E-4,3.416749882E-3,-6.248455029E-4,3.475422656E-3
1.403228879E1,1.710145734E-3,4.625332076E-5,-2.376406686E-3,2.928147288E-3
1.404232379E1,2.272002865E-3,8.000098169E-4,2.801166556E-4,2.424969704E-3
1.405235879E1,-8.947618771E-4,2.431429457E-4,-5.912696943E-4,1.099689574E-3
1.406239279E1,1.720243483E-3,-1.532952534E-3,6.809906336E-4,2.402692106E-3
1.407242779E1,-1.953853527E-3,-1.143065747E-3,3.211975854E-4,2.286331296E-3
1.408246279E1,-4.817155423E-4,-4.535459448E-5,-1.600184594E-3,1.671734919E-3
1.409249779E1,1.410460332E-3,2.321662847E-3,-1.810574322E-3,3.264612703E-3
1.410253279E1,3.611075226E-3,-3.639678471E-5,-1.765936613E-3,4.019915563E-3
1.411256779E1,3.220655490E-3,-6.451954832E-4,2.235729015E-3,3.973334018E-3
1.412260279E1,3.820862155E-3,-1.343950396E-3,-5.832044990E-4,4.092104320E-3
1.413263779E1,-1.784292865E-3,1.461157110E-3,-2.375261975E-4,2.318426152E-3
1.414267279E1,-1.457425067E-3,-8.408075082E-4,1.192260883E-3,2.062166605E-3
1.415270679E1,2.803100273E-3,1.635666005E-3,2.468387247E-4,3.254797041E-3
1.416274179E1,-5.728802644E-4,-8.671439718E-4,1.447039191E-3,1.781587181E-3
1.417277679E1,-3.681854345E-3,-1.102034817E-3,4.137327196E-4,3.865450416E-3
1.418281179E1,-7.467146497E-4,1.392466947E-3,1.089792466E-3,1.919425588E-3
1.419284679E1,-4.880739842E-3,1.091593038E-2,5.405178294E-3,1.312231344E-2
1.420288179E1,-1.245787274E-2,-1.177752763E-2,9.274832904E-3,1.949182587E-2
1.421291679E1,-1.706354320E-2,-4.323931411E-2,2.110699192E-2,5.105201170E-2
1.422295179E1,-6.937289834E-1,-2.503064394E0,4.634935781E-2,2.597833622E0
1.423298679E1,-2.043045998E0,-6.001051903E0,1.046139970E-1,6.340158119E0
1.424302079E1,-2.071448088E0,-5.544589996E0,2.723747194E-1,5.925163575E0
1.425305579E1,-1.386288881E0,-4.177230835E0,5.984489322E-1,4.441755896E0
1.426309079E1,-8.349342346E-1,-3.585462093E0,9.629865289E-1,3.805259078E0
1.427312579E1,-4.219336510E-1,-2.681148291E0,9.688702822E-1,2.881890662E0
1.428316079E1,-2.302782685E-1,-8.815275431E-1,5.045138001E-1,1.041466785E0
1.429319579E1,8.840305731E-3,2.605535686E-1,-2.821112573E-1,3.841263784E-1
1.430323079E1,2.324376404E-1,-6.134380102E-1,-4.403613210E-1,7.900959069E-1
1.431326579E1,1.565811224E-3,-1.956807017E0,-9.006563574E-2,1.958879265E0
1.432329979E1,-3.007360920E-2,-1.450348020E0,3.664553165E-1,1.496229695E0
1.433333479E1,1.819325611E-2,-7.295960784E-1,1.152745605E0,1.364354742E0
1.434336979E1,2.010980546E-1,2.331735492E-1,1.435466766E0,1.468119603E0
1.435340479E1,1.651850581E0,4.166060925E0,9.858220816E-1,4.588738296E0
1.436343979E1,2.146218538E0,4.897694588E0,1.481739879E0,5.548803417E0
1.437347479E1,9.031091332E-1,2.376108646E0,1.970900297E0,3.216511525E0
1.438350979E1,6.528647989E-2,1.601405025E0,1.543864608E0,2.225371498E0
1.439354479E1,-7.163485512E-3,1.470775366E0,5.676224232E-1,1.576523615E0
1.440357979E1,-1.383662596E-2,4.530664682E-1,-6.413958967E-2,4.577931452E-1
1.441361379E1,-2.089075893E-1,-6.560293436E-1,-8.784970641E-2,6.940709268E-1
1.442364879E1,-3.425457180E-1,-8.082627654E-1,1.879418790E-1,8.977462986E-1
1.443368379E1,-4.888363481E-1,-7.279722095E-1,3.055819571E-1,9.285929385E-1
1.444371879E1,-6.137766242E-1,-8.977246284E-1,1.112107337E-1,1.093160135E0
1.445375379E1,-6.517384052E-1,-9.717368484E-1,-2.987594903E-1,1.207597898E0
1.446378879E1,-6.888823509E-1,-9.315391183E-1,-8.297853470E-1,1.425085171E0
1.447382379E1,-6.379161477E-1,-1.691775769E-1,-8.513894081E-1,1.077228847E0
1.448385879E1,-3.369809687E-1,8.862044215E-1,-3.593090773E-1,1.013911960E0
1.449389379E1,-2.166822404E-1,1.753922820E0,-3.192732632E-1,1.795865215E0
1.450392779E1,-4.471870065E-1,2.203775167E0,-4.345716536E-1,2.290295555E0
1.451396279E1,-4.908535182E-1,2.779940605E0,-5.677598119E-1,2.879471852E0
1.452399779E1,-4.751428664E-1,2.587473631E0,-7.208415270E-1,2.727708386E0
1.453403279E1,-5.201122165E-1,1.536263824E0,-4.544386268E-1,1.684380515E0
1.454406779E1,-3.734893799E-1,9.110589623E-1,-2.836813033E-2,9.850520294E-1
1.455410279E1,-6.335175037E-2,9.972000122E-1,1.648841500E-1,1.012723107E0
1.456413779E1,6.115468591E-2,1.230636477E0,5.035833716E-1,1.331090623E0
1.457417279E1,3.259592056E-1,1.663851023E0,8.012803197E-1,1.875286586E0
1.458420779E1,5.510134101E-1,1.547143459E0,9.855211377E-1,1.915338240E0
1.459424179E1,5.768985152E-1,1.541420102E0,9.619090557E-1,1.906320241E0
1.460427679E1,5.552629828E-1,1.787531972E0,8.422853351E-1,2.052567201E0
1.461431179E1,3.969873488E-1,1.998506784E0,5.296238661E-1,2.105262397E0
1.462434679E1,1.876136810E-1,2.006315231E0,5.055974424E-2,2.015702356E0
1.463438179E1,1.949474961E-1,1.769251466E0,-5.818341970E-1,1.872641532E0
1.464441679E1,4.669997394E-1,1.773306251E0,-1.206081986E0,2.194843405E0
1.465445179E1,9.897452593E-1,1.603143215E0,-1.744915128E0,2.567954955E0
1.466448679E1,1.678543806E0,1.487114906E0,-2.019682169E0,3.017968873E0
1.467452179E1,2.200361967E0,1.883320093E0,-1.938294172E0,3.485035388E0
1.468455579E1,2.678948164E0,2.803106546E0,-1.448813319E0,4.139230558E0
1.469459079E1,2.930454254E0,3.545947075E0,-6.336660385E-1,4.643580024E0
1.470462579E1,3.089179516E0,4.075737000E0,-2.319424599E-1,5.119419838E0
1.471466079E1,2.241500378E0,4.970487118E0,5.831685662E-1,5.483625781E0
1.472469579E1,1.699362278E0,4.987798214E0,1.271473765E0,5.420572729E0
1.473473079E1,1.823020816E0,4.752720833E0,2.099009037E0,5.506141948E0
1.474476579E1,1.833636999E0,5.001483917E0,2.623948812E0,5.938196139E0
1.475480079E1,1.735950112E0,5.358100414E0,2.675821066E0,6.235605922E0
1.476483479E1,1.875950456E0,5.723972321E0,2.930341244E0,6.698503493E0
1.477486979E1,2.330325842E0,5.924782753E0,2.912981749E0,7.001352146E0
1.478490479E1,3.124246120E0,5.765914440E0,2.344986439E0,6.964599382E0
1.479494054E1,4.007940292E0,5.853169918E0,1.776390076E0,7.312916325E0
1.480497554E1,4.544031620E0,6.213243961E0,1.662171125E0,7.874988047E0
1.481501054E1,4.744505405E0,6.346247196E0,2.245073318E0,8.235626219E0
1.482504554E1,4.563617706E0,6.902025700E0,2.809781075E0,8.738388582E0
1.483508054E1,3.629730701E0,7.598557472E0,3.222458363E0,9.016499239E0
1.484511554E1,2.426129818E0,7.502752304E0,3.114904881E0,8.478209153E0
1.485515054E1,1.182892442E0,6.438545704E0,1.935569286E0,6.826458362E0
1.486518454E1,1.580699235E-1,5.172704697E0,5.738718510E-1,5.206840585E0
1.487521954E1,-6.881929040E-1,4.204158306E0,-6.277285814E-1,4.306111901E0
1.488525454E1,-1.420275927E0,3.731637001E0,-1.316788793E0,4.204311018E0
1.489528954E1,-2.185910463E0,3.884762049E0,-1.396372080E0,4.671127885E0
1.490532454E1,-2.816483974E0,4.066968918E0,-1.135179520E0,5.075573928E0
1.491535954E1,-3.392867088E0,4.439723969E0,-7.932770252E-1,5.643756234E0
1.492539454E1,-3.982745171E0,5.165796280E0,-4.557417333E-1,6.538762178E0
1.493542954E1,-4.502426147E0,5.371918201E0,-2.104829699E-1,7.012392563E0
1.494546354E1,-4.954986572E0,5.472971916E0,-1.313930601E-1,7.383940524E0
1.495549854E1,-5.397957325E0,5.415114403E0,6.110660732E-2,7.646250146E0
1.496553354E1,-5.695366859E0,5.404560566E0,1.151468530E-1,7.852371449E0
1.497556854E1,-5.777279854E0,5.965568066E0,-9.614089131E-2,8.305071217E0
1.498560354E1,-4.883890152E0,5.617004871E0,-3.538525999E-1,7.451733919E0
1.499563854E1,-3.387735605E0,5.537638187E0,-4.676955640E-1,6.508527358E0
1.500567354E1,-2.431105852E0,5.541097641E0,-7.315382361E-1,6.095013283E0
1.501570854E1,-2.024038792E0,5.712462425E0,-1.277159810E0,6.193552871E0
1.502574354E1,-2.027744293E0,5.957139969E0,-1.759604812E0,6.534177272E0
1.503577754E1,-2.218853474E0,5.940447330E0,-1.992774129E0,6.647057541E0
1.504581254E1,-2.614701271E0,5.501568317E0,-2.077698708E0,6.435895323E0
1.505584754E1,-2.908513069E0,5.332626820E0,-2.316472769E0,6.500954019E0
1.506588254E1,-2.908683777E0,5.095303535E0,-2.606391668E0,6.419956149E0
1.507591754E1,-2.522565842E0,4.751150608E0,-2.870909691E0,6.097449711E0
1.508595254E1,-1.849340200E0,4.091173172E0,-2.943275928E0,5.368484916E0
1.509598754E1,-1.028663158E0,3.288285971E0,-2.828566551E0,4.457775370E0
1.510602254E1,-1.221779287E-1,2.189160585E0,-2.754699230E0,3.520755510E0
1.511605754E1,6.856158376E-1,1.011948347E0,-2.598802090E0,2.871912400E0
1.512609154E1,1.358648062E0,5.077251196E-1,-2.366554499E0,2.775660200E0
1.513612654E1,1.829789519E0,8.367978334E-1,-2.225248098E0,3.000014900E0
1.514616154E1,1.955890179E0,1.585189104E0,-1.845148683E0,3.121362611E0
1.515619654E1,1.940180659E0,2.376061201E0,-1.157863498E0,3.278813154E0
1.516623154E1,2.003737926E0,3.450154781E0,-6.045499444E-1,4.035345627E0
1.517626654E1,2.417039871E0,4.999080658E0,-5.612655878E-1,5.581031108E0
1.518630154E1,2.805239677E0,5.567437649E0,-6.319928169E-1,6.266190752E0
1.519633654E1,3.346999645E0,5.293999672E0,-8.419985175E-1,6.319636117E0
1.520637154E1,4.288752079E0,4.130153179E0,-1.129486442E0,6.060305215E0
1.521640554E1,5.424736977E0,2.351818562E0,-1.442662477E0,6.086057577E0
1.522644054E1,6.555198193E0,1.083451033E0,-1.543173432E0,6.820987738E0
1.523647554E1,7.233334064E0,4.159630537E-1,-9.295276403E-1,7.304667589E0
1.524651054E1,7.350987911E0,1.745904833E-1,-1.863367409E-1,7.355421571E0
1.525654554E1,6.552499771E0,8.361406922E-1,7.370045781E-1,6.646620213E0
1.526658054E1,4.118359089E0,1.440427780E0,1.978940010E0,4.790815937E0
1.527661554E1,2.874272466E-1,2.134223700E0,3.105875254E0,3.779416134E0
1.528665054E1,-4.260316372E0,3.306961060E0,3.201445818E0,6.271805351E0
1.529668554E1,-7.466106415E0,4.092851162E0,2.331094503E0,8.827693765E0
1.530671954E1,-6.122518063E0,3.902402639E0,1.057000875E0,7.336976532E0
1.531675454E1,-1.455754519E0,3.315212488E0,4.004322886E-1,3.642828719E0
1.532678954E1,2.574772835E0,1.705256104E0,-1.492219865E-1,3.091863634E0
1.533682454E1,4.088881969E0,2.020484069E-3,-1.058631778E0,4.223702296E0
1.534685954E1,4.181595325E0,-1.035657525E0,-2.033089876E0,4.763589027E0
1.535689454E1,3.605193615E0,-1.481759667E0,-2.538513660E0,4.651567942E0
1.536692954E1,2.621349812E0,-1.337523222E0,-2.372315407E0,3.779989893E0
1.537696454E1,1.312152386E0,-5.417702794E-1,-1.640284896E0,2.169284089E0
1.538699954E1,-1.216885597E-1,5.451883078E-1,-5.177149177E-1,7.616213839E-1
1.539703354E1,-1.411631584E0,1.234118819E0,5.716686845E-1,1.960244391E0
1.540706854E1,-2.325758696E0,1.352131367E0,1.300347447E0,2.988028820E0
1.541710354E1,-2.632776976E0,1.155480146E0,1.746048808E0,3.363827494E0
1.542713854E1,-2.432129383E0,1.156786442E0,1.909354806E0,3.301370016E0
1.543717354E1,-1.838672757E0,8.603067994E-1,1.935194135E0,2.804607216E0
1.544720854E1,-1.060149908E0,2.306806594E-1,1.905936360E0,2.193108480E0
1.545724354E1,-4.944324195E-1,4.090378806E-2,1.731545568E0,1.801218085E0
1.546727854E1,-1.852058172E-1,2.821797431E-1,1.412245989E0,1.452021121E0
1.547731354E1,-1.366816759E-1,7.524409890E-1,9.984176159E-1,1.257651406E0
1.548734754E1,-1.457441747E-1,1.076148629E0,5.273875594E-1,1.207259241E0
1.549738254E1,1.966105103E-1,9.876099825E-1,1.013811231E-1,1.012080680E0
1.550741754E1,6.985311508E-1,6.109918952E-1,-1.157027185E-1,9.352240286E-1
1.551745254E1,1.007943034E0,7.936418802E-2,-2.676848173E-1,1.045898177E0
1.552748754E1,1.178521872E0,-4.639620185E-1,-4.171068370E-1,1.333473910E0
1.553752254E1,1.279988527E0,-7.535421848E-1,-5.895071626E-1,1.598034777E0
1.554755754E1,1.225060582E0,-8.298094869E-1,-8.125036955E-1,1.688051975E0
1.555759254E1,9.925699234E-1,-7.912368178E-1,-9.646644592E-1,1.594311222E0
1.556762654E1,8.008159995E-1,-6.458814144E-1,-9.866053462E-1,1.425432978E0
1.557766154E1,6.431981325E-1,-3.320047259E-1,-8.803556561E-1,1.139717973E0
1.558769654E1,4.140645564E-1,-1.276619583E-1,-7.182911038E-1,8.388618136E-1
1.559773154E1,2.500478923E-1,-1.629999727E-1,-5.636993647E-1,6.378478763E-1
1.560776654E1,1.694401503E-1,-3.057474196E-1,-3.889710605E-1,5.229626517E-1
1.561780154E1,7.653365284E-2,-2.597269118E-1,-2.834680676E-1,3.920071608E-1
1.562783654E1,7.887377590E-2,-1.338040680E-1,-2.325316817E-1,2.796347334E-1
1.563787154E1,4.685458913E-2,-2.444174839E-3,-2.034134716E-1,2.087543220E-1
1.564790654E1,-8.002621680E-2,2.546892166E-1,-1.977118105E-1,3.322058886E-1
1.565794054E1,-5.377703905E-2,3.038511574E-1,-1.306635290E-1,3.350976777E-1
1.566797554E1,2.402032912E-1,-6.987248361E-2,-1.187755615E-1,2.769249340E-1
1.567801054E1,4.643229246E-1,-3.808663189E-1,-2.965466380E-1,6.697722297E-1
1.568804554E1,4.565326273E-1,-4.925756156E-1,-4.741068780E-1,8.220888691E-1
1.569808054E1,2.967908978E-1,-4.606767893E-1,-4.761657715E-1,7.259764343E-1
1.570811554E1,-2.903688233E-3,-1.458782107E-1,-3.536163867E-1,3.825355312E-1
1.571815054E1,-2.319288850E-1,3.249015510E-1,-2.060125470E-1,4.492139747E-1
1.572818554E1,-1.891182065E-1,7.312423587E-1,-1.503875107E-1,7.701282273E-1
1.573822054E1,-3.981020674E-2,8.738743663E-1,-2.770093679E-1,9.175922027E-1
1.574825454E1,1.813580282E-2,7.266925573E-1,-5.061374307E-1,8.857686374E-1
1.575828954E1,7.267414033E-2,5.254076719E-1,-7.305691838E-1,9.028101045E-1
1.576832454E1,2.095885128E-1,3.653261065E-1,-8.942949772E-1,9.885110091E-1
1.577835954E1,4.426140487E-1,2.967094779E-1,-9.506986141E-1,1.089849331E0
1.578839454E1,6.814374924E-1,3.464369774E-1,-8.630306125E-1,1.152908268E0
1.579842942E1,8.455830216E-1,2.697525918E-1,-7.253212333E-1,1.146240812E0
1.580846442E1,1.017334461E0,-1.058125054E-3,-6.837106347E-1,1.225736822E0
1.581849942E1,1.154883265E0,-2.385194153E-1,-8.287693262E-1,1.441355426E0
1.582853442E1,1.206586003E0,-5.566207767E-1,-9.948489070E-1,1.659940005E0
1.583856842E1,1.163372993E0,-7.390723825E-1,-1.056069136E0,1.736360195E0
1.584860342E1,1.070348978E0,-6.099588871E-1,-9.883556366E-1,1.579412436E0
1.585863842E1,1.053528666E0,-4.478086233E-1,-7.397593856E-1,1.362974381E0
1.586867342E1,8.062926531E-1,-2.647073567E-1,-4.311583340E-1,9.518798958E-1
1.587870842E1,1.810542941E-1,-9.616464376E-3,-2.241308391E-1,2.882841772E-1
1.588874342E1,-5.703593493E-1,2.677179873E-1,-2.386838198E-1,6.737601011E-1
1.589877842E1,-1.419925570E0,2.952151299E-1,-5.181972384E-1,1.540087328E0
1.590881342E1,-2.237859011E0,4.546893388E-2,-8.540909290E-1,2.395736148E0
1.591884842E1,-2.822413921E0,-3.239549100E-1,-1.041919470E0,3.025981379E0
1.592888242E1,-2.985987425E0,-7.027074099E-1,-1.015827775E0,3.231381233E0
1.593891742E1,-2.731925011E0,-7.889030576E-1,-8.085968494E-1,2.956283336E0
1.594895242E1,-2.154774904E0,-6.811576486E-1,-3.861939311E-1,2.292635248E0
1.595898742E1,-1.489095211E0,-5.971426368E-1,8.458930254E-2,1.606592427E0
1.596902242E1,-9.779716730E-1,-7.508098483E-1,6.691541076E-1,1.402822598E0
1.597905742E1,-6.845342517E-1,-8.513692021E-1,1.252126217E0,1.661696941E0
1.598909242E1,-3.351916969E-1,-8.884931207E-1,1.599629164E0,1.860265293E0
1.599912742E1,2.063588947E-1,-1.068569064E0,1.722404599E0,2.037425199E0
1.600916242E1,8.915845156E-1,-1.458153605E0,1.590126753E0,2.334445968E0
1.601919642E1,1.511392593E0,-1.753439784E0,1.238323092E0,2.625319548E0
1.602923142E1,1.979140162E0,-1.796724916E0,8.916898370E-1,2.817858579E0
1.603926642E1,2.230834007E0,-1.309411168E0,6.468619704E-1,2.666384890E0
1.604930142E1,2.090939760E0,-2.153181732E-1,4.891795814E-1,2.158167662E0
1.605933642E1,1.619577765E0,9.327010512E-1,3.778900504E-1,1.906768019E0
1.606937142E1,1.014439106E0,1.566516161E0,1.936661452E-1,1.876317180E0
1.607940642E1,4.502180517E-1,1.585322499E0,-1.091363430E-1,1.651621767E0
1.608944142E1,4.954109341E-2,1.382678270E0,-4.634929001E-1,1.459136453E0
1.609947642E1,-2.511476278E-1,7.516604066E-1,-6.944667697E-1,1.053732695E0
1.610951042E1,-5.269316435E-1,-1.275416762E-1,-7.991715670E-1,9.657116700E-1
1.611954542E1,-7.594501376E-1,-5.986431241E-1,-8.756450415E-1,1.304565959E0
1.612958042E1,-9.144272804E-1,-5.598176122E-1,-9.519411325E-1,1.433793894E0
1.613961542E1,-9.730919003E-1,-4.170296192E-1,-9.640449286E-1,1.431853405E0
1.614965042E1,-9.887662530E-1,-2.300292701E-1,-9.511014819E-1,1.391102511E0
1.615968542E1,-9.924395680E-1,1.880278885E-1,-9.776262641E-1,1.405718284E0
1.616972042E1,-1.052201986E0,5.104401708E-1,-7.858697176E-1,1.408995884E0
1.617975542E1,-1.260633230E0,6.633021832E-1,-3.144523799E-1,1.458782447E0
1.618978942E1,-1.675243497E0,6.601636410E-1,1.906318665E-1,1.810689735E0
1.619982442E1,-2.035075665E0,3.078255355E-1,5.827407837E-1,2.139129809E0
1.620985942E1,-2.014171839E0,-1.160047278E-1,8.767152429E-1,2.199767013E0
1.621989442E1,-1.704568505E0,-5.503663421E-1,1.069634080E0,2.086282331E0
1.622992942E1,-1.238647461E0,-7.658113837E-1,1.153779984E0,1.857935106E0
